timestamp,accX,accY,accZ,ppg
2024-11-18 14:40:10.060,2027.0,273.0,2037.0,10657.0
2024-11-18 14:40:10.080,1871.923076923077,133.0,1887.6153846153845,10659.076923076924
2024-11-18 14:40:10.100,1716.8461538461538,-7.0,1738.2307692307693,10661.153846153846
2024-11-18 14:40:10.120,1561.7692307692307,-147.0,1588.8461538461538,10663.23076923077
2024-11-18 14:40:10.140,1406.6923076923076,-287.0,1439.4615384615386,10665.307692307691
2024-11-18 14:40:10.160,1251.6153846153848,-427.0,1290.076923076923,10667.384615384615
2024-11-18 14:40:10.180,1096.5384615384617,-567.0,1140.6923076923076,10669.461538461539
2024-11-18 14:40:10.200,941.4615384615386,-707.0,991.3076923076923,10671.538461538461
2024-11-18 14:40:10.220,786.3846153846155,-847.0,841.9230769230769,10673.615384615385
2024-11-18 14:40:10.240,631.3076923076924,-987.0,692.5384615384615,10675.692307692309
2024-11-18 14:40:10.260,476.23076923076934,-1127.0,543.1538461538462,10677.76923076923
2024-11-18 14:40:10.280,321.1538461538463,-1267.0,393.7692307692307,10679.846153846154
2024-11-18 14:40:10.300,166.0769230769232,-1407.0,244.38461538461536,10681.923076923076
2024-11-18 14:40:10.320,11.0,-1547.0,95.0,10684.0
2024-11-18 14:40:10.340,174.83333333333334,-1546.6666666666667,97.0,10683.25
2024-11-18 14:40:10.360,338.6666666666667,-1546.3333333333333,99.0,10682.5
2024-11-18 14:40:10.380,502.5,-1546.0,101.0,10681.75
2024-11-18 14:40:10.400,666.3333333333334,-1545.6666666666667,103.0,10681.0
2024-11-18 14:40:10.420,830.1666666666667,-1545.3333333333333,105.0,10680.25
2024-11-18 14:40:10.440,994.0,-1545.0,107.0,10679.5
2024-11-18 14:40:10.460,1157.8333333333335,-1544.6666666666667,109.0,10678.75
2024-11-18 14:40:10.480,1321.6666666666667,-1544.3333333333333,111.0,10678.0
2024-11-18 14:40:10.500,1485.5,-1544.0,113.0,10677.25
2024-11-18 14:40:10.520,1649.3333333333335,-1543.6666666666667,115.0,10676.5
2024-11-18 14:40:10.540,1813.1666666666667,-1543.3333333333333,117.0,10675.75
2024-11-18 14:40:10.560,1977.0,-1543.0,119.0,10675.0
2024-11-18 14:40:10.580,1834.4166666666667,-1387.0,-47.41666666666666,10674.833333333334
2024-11-18 14:40:10.600,1691.8333333333333,-1231.0,-213.83333333333331,10674.666666666666
2024-11-18 14:40:10.620,1549.25,-1075.0,-380.25,10674.5
2024-11-18 14:40:10.640,1406.6666666666665,-919.0,-546.6666666666666,10674.333333333334
2024-11-18 14:40:10.660,1264.0833333333333,-763.0,-713.0833333333333,10674.166666666666
2024-11-18 14:40:10.680,1121.5,-607.0,-879.5,10674.0
2024-11-18 14:40:10.700,978.9166666666666,-451.0,-1045.9166666666665,10673.833333333334
2024-11-18 14:40:10.720,836.3333333333333,-295.0,-1212.3333333333333,10673.666666666666
2024-11-18 14:40:10.740,693.7499999999999,-139.0,-1378.75,10673.5
2024-11-18 14:40:10.760,551.1666666666665,17.0,-1545.1666666666665,10673.333333333334
2024-11-18 14:40:10.780,408.58333333333326,173.0,-1711.5833333333333,10673.166666666666
2024-11-18 14:40:10.800,266.0,329.0,-1878.0,10673.0
2024-11-18 14:40:10.820,115.41666666666666,146.83333333333334,-1721.25,10673.333333333334
2024-11-18 14:40:10.840,-35.166666666666686,-35.333333333333314,-1564.5,10673.666666666666
2024-11-18 14:40:10.860,-185.75000000000003,-217.49999999999997,-1407.75,10674.0
2024-11-18 14:40:10.880,-336.33333333333337,-399.66666666666663,-1251.0,10674.333333333334
2024-11-18 14:40:10.900,-486.91666666666674,-581.8333333333333,-1094.25,10674.666666666666
2024-11-18 14:40:10.920,-637.5,-764.0,-937.5,10675.0
2024-11-18 14:40:10.940,-788.0833333333334,-946.1666666666666,-780.75,10675.333333333334
2024-11-18 14:40:10.960,-938.6666666666667,-1128.3333333333333,-624.0,10675.666666666666
2024-11-18 14:40:10.980,-1089.25,-1310.5,-467.25,10676.0
2024-11-18 14:40:11.000,-1239.8333333333335,-1492.6666666666665,-310.5,10676.333333333334
2024-11-18 14:40:11.020,-1390.4166666666667,-1674.8333333333333,-153.75,10676.666666666666
2024-11-18 14:40:11.040,-1541.0,-1857.0,3.0,10677.0
2024-11-18 14:40:11.060,-1547.357142857143,-1859.4285714285713,143.35714285714286,10676.785714285714
2024-11-18 14:40:11.080,-1553.7142857142858,-1861.857142857143,283.7142857142857,10676.57142857143
2024-11-18 14:40:11.100,-1560.0714285714287,-1864.2857142857142,424.07142857142856,10676.357142857143
2024-11-18 14:40:11.120,-1566.4285714285713,-1866.7142857142858,564.4285714285714,10676.142857142857
2024-11-18 14:40:11.140,-1572.7857142857142,-1869.142857142857,704.7857142857143,10675.92857142857
2024-11-18 14:40:11.160,-1579.142857142857,-1871.5714285714287,845.1428571428571,10675.714285714286
2024-11-18 14:40:11.180,-1585.5,-1874.0,985.5,10675.5
2024-11-18 14:40:11.200,-1591.857142857143,-1876.4285714285713,1125.857142857143,10675.285714285714
2024-11-18 14:40:11.220,-1598.2142857142858,-1878.857142857143,1266.2142857142858,10675.07142857143
2024-11-18 14:40:11.240,-1604.5714285714287,-1881.2857142857142,1406.5714285714287,10674.857142857143
2024-11-18 14:40:11.260,-1610.9285714285713,-1883.7142857142858,1546.9285714285716,10674.642857142857
2024-11-18 14:40:11.280,-1617.2857142857142,-1886.142857142857,1687.2857142857142,10674.42857142857
2024-11-18 14:40:11.300,-1623.642857142857,-1888.5714285714287,1827.642857142857,10674.214285714286
2024-11-18 14:40:11.320,-1630.0,-1891.0,1968.0,10674.0
2024-11-18 14:40:11.340,-1471.0833333333333,-1886.4166666666667,1949.5833333333333,10674.333333333334
2024-11-18 14:40:11.360,-1312.1666666666667,-1881.8333333333333,1931.1666666666667,10674.666666666666
2024-11-18 14:40:11.380,-1153.25,-1877.25,1912.75,10675.0
2024-11-18 14:40:11.400,-994.3333333333334,-1872.6666666666667,1894.3333333333333,10675.333333333334
2024-11-18 14:40:11.420,-835.4166666666667,-1868.0833333333333,1875.9166666666667,10675.666666666666
2024-11-18 14:40:11.440,-676.5,-1863.5,1857.5,10676.0
2024-11-18 14:40:11.460,-517.5833333333334,-1858.9166666666667,1839.0833333333333,10676.333333333334
2024-11-18 14:40:11.480,-358.66666666666674,-1854.3333333333333,1820.6666666666667,10676.666666666666
2024-11-18 14:40:11.500,-199.75000000000009,-1849.75,1802.25,10677.0
2024-11-18 14:40:11.520,-40.83333333333343,-1845.1666666666667,1783.8333333333333,10677.333333333334
2024-11-18 14:40:11.540,118.08333333333323,-1840.5833333333333,1765.4166666666667,10677.666666666666
2024-11-18 14:40:11.560,277.0,-1836.0,1747.0,10678.0
2024-11-18 14:40:11.580,263.75,-1660.25,1740.6666666666667,10678.583333333334
2024-11-18 14:40:11.600,250.5,-1484.5,1734.3333333333333,10679.166666666666
2024-11-18 14:40:11.620,237.25,-1308.75,1728.0,10679.75
2024-11-18 14:40:11.640,224.0,-1133.0,1721.6666666666667,10680.333333333334
2024-11-18 14:40:11.660,210.75,-957.25,1715.3333333333333,10680.916666666666
2024-11-18 14:40:11.680,197.5,-781.5,1709.0,10681.5
2024-11-18 14:40:11.700,184.25,-605.75,1702.6666666666667,10682.083333333334
2024-11-18 14:40:11.720,171.0,-430.0,1696.3333333333333,10682.666666666666
2024-11-18 14:40:11.740,157.75,-254.25,1690.0,10683.25
2024-11-18 14:40:11.760,144.5,-78.5,1683.6666666666667,10683.833333333334
2024-11-18 14:40:11.780,131.25,97.25,1677.3333333333333,10684.416666666666
2024-11-18 14:40:11.800,118.0,273.0,1671.0,10685.0
2024-11-18 14:40:11.820,-16.333333333333343,135.13333333333333,1670.7333333333333,10684.833333333334
2024-11-18 14:40:11.840,-150.66666666666669,-2.7333333333333485,1670.4666666666667,10684.666666666666
2024-11-18 14:40:11.860,-285.0,-140.60000000000002,1670.2,10684.5
2024-11-18 14:40:11.880,-419.33333333333337,-278.4666666666667,1669.9333333333334,10684.333333333334
2024-11-18 14:40:11.900,-553.6666666666667,-416.33333333333337,1669.6666666666667,10684.166666666666
2024-11-18 14:40:11.920,-688.0,-554.2,1669.4,10684.0
2024-11-18 14:40:11.940,-822.3333333333334,-692.0666666666667,1669.1333333333334,10683.833333333334
2024-11-18 14:40:11.960,-956.6666666666667,-829.9333333333334,1668.8666666666666,10683.666666666666
2024-11-18 14:40:11.980,-1091.0,-967.8000000000001,1668.6,10683.5
2024-11-18 14:40:12.000,-1225.3333333333335,-1105.6666666666667,1668.3333333333333,10683.333333333334
2024-11-18 14:40:12.020,-1359.6666666666667,-1243.5333333333333,1668.0666666666666,10683.166666666666
2024-11-18 14:40:12.040,-1494.0,-1381.4,1667.8,10683.0
2024-11-18 14:40:12.060,-1628.3333333333335,-1519.2666666666669,1667.5333333333333,10682.916666666666
2024-11-18 14:40:12.080,-1762.6666666666667,-1657.1333333333334,1667.2666666666667,10682.833333333334
2024-11-18 14:40:12.100,-1897.0,-1795.0,1667.0,10682.75
2024-11-18 14:40:12.120,-1672.888888888889,-1563.0,1891.3333333333333,10682.666666666666
2024-11-18 14:40:12.140,-1448.7777777777778,-1331.0,2115.6666666666665,10682.583333333334
2024-11-18 14:40:12.160,-1224.6666666666667,-1099.0,2340.0,10682.5
2024-11-18 14:40:12.180,-1000.5555555555555,-867.0,2564.3333333333335,10682.416666666666
2024-11-18 14:40:12.200,-776.4444444444445,-635.0,2788.6666666666665,10682.333333333334
2024-11-18 14:40:12.220,-552.3333333333333,-403.0,3013.0,10682.25
2024-11-18 14:40:12.240,-328.2222222222222,-171.0,3237.3333333333335,10682.166666666666
2024-11-18 14:40:12.260,-104.11111111111109,61.0,3461.666666666667,10682.083333333334
2024-11-18 14:40:12.280,120.0,293.0,3686.0,10682.0
2024-11-18 14:40:12.300,116.88888888888889,291.1111111111111,3685.777777777778,10682.461538461539
2024-11-18 14:40:12.320,113.77777777777777,289.22222222222223,3685.5555555555557,10682.923076923076
2024-11-18 14:40:12.340,110.66666666666667,287.3333333333333,3685.3333333333335,10683.384615384615
2024-11-18 14:40:12.360,107.55555555555556,285.44444444444446,3685.1111111111113,10683.846153846154
2024-11-18 14:40:12.380,104.44444444444444,283.55555555555554,3684.8888888888887,10684.307692307691
2024-11-18 14:40:12.400,101.33333333333333,281.6666666666667,3684.6666666666665,10684.76923076923
2024-11-18 14:40:12.420,98.22222222222223,279.77777777777777,3684.4444444444443,10685.23076923077
2024-11-18 14:40:12.440,95.11111111111111,277.8888888888889,3684.222222222222,10685.692307692309
2024-11-18 14:40:12.460,92.0,276.0,3684.0,10686.153846153846
2024-11-18 14:40:12.480,88.88888888888889,274.1111111111111,3683.777777777778,10686.615384615385
2024-11-18 14:40:12.500,85.77777777777777,272.22222222222223,3683.5555555555557,10687.076923076924
2024-11-18 14:40:12.520,82.66666666666667,270.3333333333333,3683.3333333333335,10687.538461538461
2024-11-18 14:40:12.540,79.55555555555556,268.44444444444446,3683.1111111111113,10688.0
2024-11-18 14:40:12.560,76.44444444444444,266.55555555555554,3682.8888888888887,10688.384615384615
2024-11-18 14:40:12.580,73.33333333333333,264.6666666666667,3682.6666666666665,10688.76923076923
2024-11-18 14:40:12.600,70.22222222222223,262.77777777777777,3682.4444444444443,10689.153846153846
2024-11-18 14:40:12.620,67.11111111111111,260.8888888888889,3682.222222222222,10689.538461538461
2024-11-18 14:40:12.640,64.0,259.0,3682.0,10689.923076923076
2024-11-18 14:40:12.660,70.875,-6.25,3680.5,10690.307692307691
2024-11-18 14:40:12.680,77.75,-271.5,3679.0,10690.692307692309
2024-11-18 14:40:12.700,84.625,-536.75,3677.5,10691.076923076924
2024-11-18 14:40:12.720,91.5,-802.0,3676.0,10691.461538461539
2024-11-18 14:40:12.740,98.375,-1067.25,3674.5,10691.846153846154
2024-11-18 14:40:12.760,105.25,-1332.5,3673.0,10692.23076923077
2024-11-18 14:40:12.780,112.125,-1597.75,3671.5,10692.615384615385
2024-11-18 14:40:12.800,119.0,-1863.0,3670.0,10693.0
2024-11-18 14:40:12.820,-48.33333333333334,-1680.1666666666667,3505.3333333333335,10692.9
2024-11-18 14:40:12.840,-215.66666666666669,-1497.3333333333333,3340.6666666666665,10692.8
2024-11-18 14:40:12.860,-383.0,-1314.5,3176.0,10692.7
2024-11-18 14:40:12.880,-550.3333333333334,-1131.6666666666665,3011.3333333333335,10692.6
2024-11-18 14:40:12.900,-717.6666666666667,-948.8333333333333,2846.6666666666665,10692.5
2024-11-18 14:40:12.920,-885.0,-766.0,2682.0,10692.4
2024-11-18 14:40:12.940,-1052.3333333333335,-583.1666666666666,2517.3333333333335,10692.3
2024-11-18 14:40:12.960,-1219.6666666666667,-400.33333333333326,2352.666666666667,10692.2
2024-11-18 14:40:12.980,-1387.0,-217.49999999999991,2188.0,10692.1
2024-11-18 14:40:13.000,-1554.3333333333335,-34.66666666666657,2023.3333333333335,10692.0
2024-11-18 14:40:13.020,-1721.6666666666667,148.16666666666677,1858.6666666666667,10691.666666666666
2024-11-18 14:40:13.040,-1889.0,331.0,1694.0,10691.333333333334
2024-11-18 14:40:13.060,-1889.9,324.9,1691.3,10691.0
2024-11-18 14:40:13.080,-1890.8,318.8,1688.6,10690.666666666666
2024-11-18 14:40:13.100,-1891.7,312.7,1685.9,10690.333333333334
2024-11-18 14:40:13.120,-1892.6,306.6,1683.2,10690.0
2024-11-18 14:40:13.140,-1893.5,300.5,1680.5,10689.666666666666
2024-11-18 14:40:13.160,-1894.4,294.4,1677.8,10689.333333333334
2024-11-18 14:40:13.180,-1895.3,288.3,1675.1,10689.0
2024-11-18 14:40:13.200,-1896.2,282.2,1672.4,10688.666666666666
2024-11-18 14:40:13.220,-1897.1,276.1,1669.7,10688.333333333334
2024-11-18 14:40:13.240,-1898.0,270.0,1667.0,10688.0
2024-11-18 14:40:13.260,-1895.0666666666666,130.73333333333332,1667.1333333333334,10688.333333333334
2024-11-18 14:40:13.280,-1892.1333333333334,-8.53333333333336,1667.2666666666667,10688.666666666666
2024-11-18 14:40:13.300,-1889.2,-147.80000000000004,1667.4,10689.0
2024-11-18 14:40:13.320,-1886.2666666666667,-287.0666666666667,1667.5333333333333,10689.333333333334
2024-11-18 14:40:13.340,-1883.3333333333333,-426.33333333333337,1667.6666666666667,10689.666666666666
2024-11-18 14:40:13.360,-1880.4,-565.6000000000001,1667.8,10690.0
2024-11-18 14:40:13.380,-1877.4666666666667,-704.8666666666668,1667.9333333333334,10690.333333333334
2024-11-18 14:40:13.400,-1874.5333333333333,-844.1333333333334,1668.0666666666666,10690.666666666666
2024-11-18 14:40:13.420,-1871.6,-983.4000000000001,1668.2,10691.0
2024-11-18 14:40:13.440,-1868.6666666666667,-1122.6666666666667,1668.3333333333333,10691.333333333334
2024-11-18 14:40:13.460,-1865.7333333333333,-1261.9333333333334,1668.4666666666667,10691.666666666666
2024-11-18 14:40:13.480,-1862.8,-1401.2000000000003,1668.6,10692.0
2024-11-18 14:40:13.500,-1859.8666666666666,-1540.466666666667,1668.7333333333333,10692.333333333334
2024-11-18 14:40:13.520,-1856.9333333333334,-1679.7333333333336,1668.8666666666666,10692.666666666666
2024-11-18 14:40:13.540,-1854.0,-1819.0,1669.0,10693.0
2024-11-18 14:40:13.560,-1854.1666666666667,-1818.7222222222222,1782.2777777777778,10693.0
2024-11-18 14:40:13.580,-1854.3333333333333,-1818.4444444444443,1895.5555555555557,10693.0
2024-11-18 14:40:13.600,-1854.5,-1818.1666666666667,2008.8333333333333,10693.0
2024-11-18 14:40:13.620,-1854.6666666666667,-1817.888888888889,2122.1111111111113,10693.0
2024-11-18 14:40:13.640,-1854.8333333333333,-1817.611111111111,2235.3888888888887,10693.0
2024-11-18 14:40:13.660,-1855.0,-1817.3333333333333,2348.6666666666665,10693.0
2024-11-18 14:40:13.680,-1855.1666666666667,-1817.0555555555557,2461.9444444444443,10693.0
2024-11-18 14:40:13.700,-1855.3333333333333,-1816.7777777777778,2575.222222222222,10693.0
2024-11-18 14:40:13.720,-1855.5,-1816.5,2688.5,10693.0
2024-11-18 14:40:13.740,-1855.6666666666667,-1816.2222222222222,2801.777777777778,10693.0
2024-11-18 14:40:13.760,-1855.8333333333333,-1815.9444444444443,2915.0555555555557,10693.0
2024-11-18 14:40:13.780,-1856.0,-1815.6666666666667,3028.333333333333,10693.0
2024-11-18 14:40:13.800,-1856.1666666666667,-1815.388888888889,3141.611111111111,10693.0
2024-11-18 14:40:13.820,-1856.3333333333333,-1815.111111111111,3254.8888888888887,10693.0
2024-11-18 14:40:13.840,-1856.5,-1814.8333333333333,3368.1666666666665,10693.0
2024-11-18 14:40:13.860,-1856.6666666666667,-1814.5555555555557,3481.4444444444443,10693.0
2024-11-18 14:40:13.880,-1856.8333333333333,-1814.2777777777778,3594.722222222222,10693.0
2024-11-18 14:40:13.900,-1857.0,-1814.0,3708.0,10693.0
2024-11-18 14:40:13.920,-1858.0,-1814.5333333333333,3572.4,10692.8
2024-11-18 14:40:13.940,-1859.0,-1815.0666666666666,3436.8,10692.6
2024-11-18 14:40:13.960,-1860.0,-1815.6,3301.2,10692.4
2024-11-18 14:40:13.980,-1861.0,-1816.1333333333334,3165.6,10692.2
2024-11-18 14:40:14.000,-1862.0,-1816.6666666666667,3030.0,10692.0
2024-11-18 14:40:14.020,-1863.0,-1817.2,2894.4,10691.8
2024-11-18 14:40:14.040,-1864.0,-1817.7333333333333,2758.8,10691.6
2024-11-18 14:40:14.060,-1865.0,-1818.2666666666667,2623.2,10691.4
2024-11-18 14:40:14.080,-1866.0,-1818.8,2487.6,10691.2
2024-11-18 14:40:14.100,-1867.0,-1819.3333333333333,2352.0,10691.0
2024-11-18 14:40:14.120,-1868.0,-1819.8666666666666,2216.4,10690.8
2024-11-18 14:40:14.140,-1869.0,-1820.4,2080.8,10690.6
2024-11-18 14:40:14.160,-1870.0,-1820.9333333333334,1945.2,10690.4
2024-11-18 14:40:14.180,-1871.0,-1821.4666666666667,1809.6000000000001,10690.2
2024-11-18 14:40:14.200,-1872.0,-1822.0,1674.0,10690.0
2024-11-18 14:40:14.220,-1869.2,-1819.4,2080.6,10690.0
2024-11-18 14:40:14.240,-1866.4,-1816.8,2487.2,10690.0
2024-11-18 14:40:14.260,-1863.6,-1814.2,2893.8,10690.0
2024-11-18 14:40:14.280,-1860.8,-1811.6,3300.4,10690.0
2024-11-18 14:40:14.300,-1858.0,-1809.0,3707.0,10690.0
2024-11-18 14:40:14.320,-1860.1,-1599.7,3506.2,10690.0
2024-11-18 14:40:14.340,-1862.2,-1390.4,3305.4,10690.0
2024-11-18 14:40:14.360,-1864.3,-1181.1,3104.6,10690.0
2024-11-18 14:40:14.380,-1866.4,-971.8,2903.8,10690.0
2024-11-18 14:40:14.400,-1868.5,-762.5,2703.0,10690.0
2024-11-18 14:40:14.420,-1870.6,-553.1999999999999,2502.2,10690.0
2024-11-18 14:40:14.440,-1872.7,-343.8999999999999,2301.4,10690.0
2024-11-18 14:40:14.460,-1874.8,-134.5999999999999,2100.6,10690.0
2024-11-18 14:40:14.480,-1876.9,74.7000000000001,1899.8,10690.0
2024-11-18 14:40:14.500,-1879.0,284.0,1699.0,10690.0
2024-11-18 14:40:14.520,-1881.3333333333333,105.41666666666666,1864.1666666666667,10690.166666666666
2024-11-18 14:40:14.540,-1883.6666666666667,-73.16666666666669,2029.3333333333333,10690.333333333334
2024-11-18 14:40:14.560,-1886.0,-251.75000000000003,2194.5,10690.5
2024-11-18 14:40:14.580,-1888.3333333333333,-430.33333333333337,2359.6666666666665,10690.666666666666
2024-11-18 14:40:14.600,-1890.6666666666667,-608.9166666666667,2524.8333333333335,10690.833333333334
2024-11-18 14:40:14.620,-1893.0,-787.5,2690.0,10691.0
2024-11-18 14:40:14.640,-1895.3333333333333,-966.0833333333334,2855.1666666666665,10691.166666666666
2024-11-18 14:40:14.660,-1897.6666666666667,-1144.6666666666667,3020.333333333333,10691.333333333334
2024-11-18 14:40:14.680,-1900.0,-1323.25,3185.5,10691.5
2024-11-18 14:40:14.700,-1902.3333333333333,-1501.8333333333335,3350.6666666666665,10691.666666666666
2024-11-18 14:40:14.720,-1904.6666666666667,-1680.4166666666667,3515.833333333333,10691.833333333334
2024-11-18 14:40:14.740,-1907.0,-1859.0,3681.0,10692.0
2024-11-18 14:40:14.760,-1751.1538461538462,-1857.7692307692307,3680.3846153846152,10692.384615384615
2024-11-18 14:40:14.780,-1595.3076923076924,-1856.5384615384614,3679.769230769231,10692.76923076923
2024-11-18 14:40:14.800,-1439.4615384615386,-1855.3076923076924,3679.153846153846,10693.153846153846
2024-11-18 14:40:14.820,-1283.6153846153848,-1854.076923076923,3678.5384615384614,10693.538461538461
2024-11-18 14:40:14.840,-1127.7692307692307,-1852.8461538461538,3677.923076923077,10693.923076923076
2024-11-18 14:40:14.860,-971.9230769230769,-1851.6153846153845,3677.3076923076924,10694.307692307691
2024-11-18 14:40:14.880,-816.0769230769231,-1850.3846153846155,3676.6923076923076,10694.692307692309
2024-11-18 14:40:14.900,-660.2307692307693,-1849.1538461538462,3676.076923076923,10695.076923076924
2024-11-18 14:40:14.920,-504.3846153846155,-1847.923076923077,3675.4615384615386,10695.461538461539
2024-11-18 14:40:14.940,-348.5384615384616,-1846.6923076923076,3674.846153846154,10695.846153846154
2024-11-18 14:40:14.960,-192.69230769230776,-1845.4615384615386,3674.230769230769,10696.23076923077
2024-11-18 14:40:14.980,-36.846153846153925,-1844.2307692307693,3673.6153846153848,10696.615384615385
2024-11-18 14:40:15.000,119.0,-1843.0,3673.0,10697.0
2024-11-18 14:40:15.020,117.91666666666667,-1842.5833333333333,3673.75,10696.833333333334
2024-11-18 14:40:15.040,116.83333333333333,-1842.1666666666667,3674.5,10696.666666666666
2024-11-18 14:40:15.060,115.75,-1841.75,3675.25,10696.5
2024-11-18 14:40:15.080,114.66666666666667,-1841.3333333333333,3676.0,10696.333333333334
2024-11-18 14:40:15.100,113.58333333333333,-1840.9166666666667,3676.75,10696.166666666666
2024-11-18 14:40:15.120,112.5,-1840.5,3677.5,10696.0
2024-11-18 14:40:15.140,111.41666666666667,-1840.0833333333333,3678.25,10695.833333333334
2024-11-18 14:40:15.160,110.33333333333333,-1839.6666666666667,3679.0,10695.666666666666
2024-11-18 14:40:15.180,109.25,-1839.25,3679.75,10695.5
2024-11-18 14:40:15.200,108.16666666666667,-1838.8333333333333,3680.5,10695.333333333334
2024-11-18 14:40:15.220,107.08333333333333,-1838.4166666666667,3681.25,10695.166666666666
2024-11-18 14:40:15.240,106.0,-1838.0,3682.0,10695.0
2024-11-18 14:40:15.260,106.84615384615384,-1836.3846153846155,3682.0,10694.846153846154
2024-11-18 14:40:15.280,107.6923076923077,-1834.7692307692307,3682.0,10694.692307692309
2024-11-18 14:40:15.300,108.53846153846153,-1833.1538461538462,3682.0,10694.538461538461
2024-11-18 14:40:15.320,109.38461538461539,-1831.5384615384614,3682.0,10694.384615384615
2024-11-18 14:40:15.340,110.23076923076923,-1829.923076923077,3682.0,10694.23076923077
2024-11-18 14:40:15.360,111.07692307692308,-1828.3076923076924,3682.0,10694.076923076924
2024-11-18 14:40:15.380,111.92307692307692,-1826.6923076923076,3682.0,10693.923076923076
2024-11-18 14:40:15.400,112.76923076923077,-1825.076923076923,3682.0,10693.76923076923
2024-11-18 14:40:15.420,113.61538461538461,-1823.4615384615386,3682.0,10693.615384615385
2024-11-18 14:40:15.440,114.46153846153847,-1821.8461538461538,3682.0,10693.461538461539
2024-11-18 14:40:15.460,115.3076923076923,-1820.2307692307693,3682.0,10693.307692307691
2024-11-18 14:40:15.480,116.15384615384616,-1818.6153846153845,3682.0,10693.153846153846
2024-11-18 14:40:15.500,117.0,-1817.0,3682.0,10693.0
2024-11-18 14:40:15.520,116.66666666666667,-1816.8666666666666,3680.733333333333,10693.083333333334
2024-11-18 14:40:15.540,116.33333333333333,-1816.7333333333333,3679.4666666666667,10693.166666666666
2024-11-18 14:40:15.560,116.0,-1816.6,3678.2,10693.25
2024-11-18 14:40:15.580,115.66666666666667,-1816.4666666666667,3676.9333333333334,10693.333333333334
2024-11-18 14:40:15.600,115.33333333333333,-1816.3333333333333,3675.6666666666665,10693.416666666666
2024-11-18 14:40:15.620,115.0,-1816.2,3674.4,10693.5
2024-11-18 14:40:15.640,114.66666666666667,-1816.0666666666666,3673.133333333333,10693.583333333334
2024-11-18 14:40:15.660,114.33333333333333,-1815.9333333333334,3671.866666666667,10693.666666666666
2024-11-18 14:40:15.680,114.0,-1815.8,3670.6,10693.75
2024-11-18 14:40:15.700,113.66666666666667,-1815.6666666666667,3669.3333333333335,10693.833333333334
2024-11-18 14:40:15.720,113.33333333333333,-1815.5333333333333,3668.0666666666666,10693.916666666666
2024-11-18 14:40:15.740,113.0,-1815.4,3666.8,10694.0
2024-11-18 14:40:15.760,112.66666666666667,-1815.2666666666667,3665.5333333333333,10694.076923076924
2024-11-18 14:40:15.780,112.33333333333333,-1815.1333333333334,3664.266666666667,10694.153846153846
2024-11-18 14:40:15.800,112.0,-1815.0,3663.0,10694.23076923077
2024-11-18 14:40:15.820,111.4,-1607.4,3664.6,10694.307692307691
2024-11-18 14:40:15.840,110.8,-1399.8,3666.2,10694.384615384615
2024-11-18 14:40:15.860,110.2,-1192.2,3667.8,10694.461538461539
2024-11-18 14:40:15.880,109.6,-984.6,3669.4,10694.538461538461
2024-11-18 14:40:15.900,109.0,-777.0,3671.0,10694.615384615385
2024-11-18 14:40:15.920,108.4,-569.4000000000001,3672.6,10694.692307692309
2024-11-18 14:40:15.940,107.8,-361.80000000000007,3674.2,10694.76923076923
2024-11-18 14:40:15.960,107.2,-154.20000000000005,3675.8,10694.846153846154
2024-11-18 14:40:15.980,106.6,53.39999999999995,3677.4,10694.923076923076
2024-11-18 14:40:16.000,106.0,261.0,3679.0,10695.0
2024-11-18 14:40:16.020,105.41666666666667,88.83333333333334,3678.9166666666665,10695.416666666666
2024-11-18 14:40:16.040,104.83333333333333,-83.33333333333331,3678.8333333333335,10695.833333333334
2024-11-18 14:40:16.060,104.25,-255.49999999999997,3678.75,10696.25
2024-11-18 14:40:16.080,103.66666666666667,-427.66666666666663,3678.6666666666665,10696.666666666666
2024-11-18 14:40:16.100,103.08333333333333,-599.8333333333333,3678.5833333333335,10697.083333333334
2024-11-18 14:40:16.120,102.5,-772.0,3678.5,10697.5
2024-11-18 14:40:16.140,101.91666666666667,-944.1666666666666,3678.4166666666665,10697.916666666666
2024-11-18 14:40:16.160,101.33333333333333,-1116.3333333333333,3678.3333333333335,10698.333333333334
2024-11-18 14:40:16.180,100.75,-1288.5,3678.25,10698.75
2024-11-18 14:40:16.200,100.16666666666667,-1460.6666666666665,3678.1666666666665,10699.166666666666
2024-11-18 14:40:16.220,99.58333333333333,-1632.8333333333333,3678.0833333333335,10699.583333333334
2024-11-18 14:40:16.240,99.0,-1805.0,3678.0,10700.0
2024-11-18 14:40:16.260,99.0,-1805.0,3678.0,10699.538461538461
2024-11-18 14:40:16.280,99.0,-1805.0,3678.0,10699.076923076924
2024-11-18 14:40:16.300,99.0,-1805.0,3678.0,10698.615384615385
2024-11-18 14:40:16.320,99.0,-1805.0,3678.0,10698.153846153846
2024-11-18 14:40:16.340,99.0,-1805.0,3678.0,10697.692307692309
2024-11-18 14:40:16.360,99.0,-1805.0,3678.0,10697.23076923077
2024-11-18 14:40:16.380,99.0,-1805.0,3678.0,10696.76923076923
2024-11-18 14:40:16.400,99.0,-1805.0,3678.0,10696.307692307691
2024-11-18 14:40:16.420,99.0,-1805.0,3678.0,10695.846153846154
2024-11-18 14:40:16.440,99.0,-1805.0,3678.0,10695.384615384615
2024-11-18 14:40:16.460,99.0,-1805.0,3678.0,10694.923076923076
2024-11-18 14:40:16.480,99.0,-1805.0,3678.0,10694.461538461539
2024-11-18 14:40:16.500,99.0,-1805.0,3678.0,10694.0
2024-11-18 14:40:16.520,99.0,-1805.0,3678.0,10694.083333333334
2024-11-18 14:40:16.540,99.0,-1805.0,3678.0,10694.166666666666
2024-11-18 14:40:16.560,99.0,-1805.0,3678.0,10694.25
2024-11-18 14:40:16.580,99.0,-1805.0,3678.0,10694.333333333334
2024-11-18 14:40:16.600,99.0,-1805.0,3678.0,10694.416666666666
2024-11-18 14:40:16.620,99.0,-1805.0,3678.0,10694.5
2024-11-18 14:40:16.640,99.0,-1805.0,3678.0,10694.583333333334
2024-11-18 14:40:16.660,99.0,-1805.0,3678.0,10694.666666666666
2024-11-18 14:40:16.680,99.0,-1805.0,3678.0,10694.75
2024-11-18 14:40:16.700,99.0,-1805.0,3678.0,10694.833333333334
2024-11-18 14:40:16.720,99.0,-1805.0,3678.0,10694.916666666666
2024-11-18 14:40:16.740,99.0,-1805.0,3678.0,10695.0
2024-11-18 14:40:16.760,99.0,-1805.0,3678.0,10695.0
2024-11-18 14:40:16.780,99.0,-1805.0,3678.0,10695.0
2024-11-18 14:40:16.800,99.0,-1805.0,3678.0,10695.0
2024-11-18 14:40:16.820,99.0,-1805.0,3678.0,10695.0
2024-11-18 14:40:16.840,99.0,-1805.0,3678.0,10695.0
2024-11-18 14:40:16.860,99.0,-1805.0,3678.0,10695.0
2024-11-18 14:40:16.880,99.0,-1805.0,3678.0,10695.0
2024-11-18 14:40:16.900,99.0,-1805.0,3678.0,10695.0
2024-11-18 14:40:16.920,99.0,-1805.0,3678.0,10695.0
2024-11-18 14:40:16.940,99.0,-1805.0,3678.0,10695.0
2024-11-18 14:40:16.960,99.0,-1805.0,3678.0,10695.0
2024-11-18 14:40:16.980,99.0,-1805.0,3678.0,10695.0
2024-11-18 14:40:17.000,99.0,-1805.0,3678.0,10695.0
2024-11-18 14:40:17.020,99.0,-1805.0,3678.0,10695.1
2024-11-18 14:40:17.040,99.0,-1805.0,3678.0,10695.2
2024-11-18 14:40:17.060,99.0,-1805.0,3678.0,10695.3
2024-11-18 14:40:17.080,99.0,-1805.0,3678.0,10695.4
2024-11-18 14:40:17.100,99.0,-1805.0,3678.0,10695.5
2024-11-18 14:40:17.120,99.0,-1805.0,3678.0,10695.6
2024-11-18 14:40:17.140,99.0,-1805.0,3678.0,10695.7
2024-11-18 14:40:17.160,99.0,-1805.0,3678.0,10695.8
2024-11-18 14:40:17.180,99.0,-1805.0,3678.0,10695.9
2024-11-18 14:40:17.200,99.0,-1805.0,3678.0,10696.0
2024-11-18 14:40:17.220,99.0,-1805.0,3678.0,10695.866666666667
2024-11-18 14:40:17.240,99.0,-1805.0,3678.0,10695.733333333334
2024-11-18 14:40:17.260,99.0,-1805.0,3678.0,10695.6
2024-11-18 14:40:17.280,99.0,-1805.0,3678.0,10695.466666666667
2024-11-18 14:40:17.300,99.0,-1805.0,3678.0,10695.333333333334
2024-11-18 14:40:17.320,99.0,-1805.0,3678.0,10695.2
2024-11-18 14:40:17.340,99.0,-1805.0,3678.0,10695.066666666668
2024-11-18 14:40:17.360,99.0,-1805.0,3678.0,10694.933333333332
2024-11-18 14:40:17.380,99.0,-1805.0,3678.0,10694.8
2024-11-18 14:40:17.400,99.0,-1805.0,3678.0,10694.666666666666
2024-11-18 14:40:17.420,99.0,-1805.0,3678.0,10694.533333333333
2024-11-18 14:40:17.440,99.0,-1805.0,3678.0,10694.4
2024-11-18 14:40:17.460,99.0,-1805.0,3678.0,10694.266666666666
2024-11-18 14:40:17.480,99.0,-1805.0,3678.0,10694.133333333333
2024-11-18 14:40:17.500,99.0,-1805.0,3678.0,10694.0
2024-11-18 14:40:17.520,99.0,-1805.0,3678.0,10694.0
2024-11-18 14:40:17.540,99.0,-1805.0,3678.0,10694.0
2024-11-18 14:40:17.560,99.0,-1805.0,3678.0,10694.0
2024-11-18 14:40:17.580,99.0,-1805.0,3678.0,10694.0
2024-11-18 14:40:17.600,99.0,-1805.0,3678.0,10694.0
2024-11-18 14:40:17.620,99.0,-1805.0,3678.0,10694.0
2024-11-18 14:40:17.640,99.0,-1805.0,3678.0,10694.0
2024-11-18 14:40:17.660,99.0,-1805.0,3678.0,10694.0
2024-11-18 14:40:17.680,99.0,-1805.0,3678.0,10694.0
2024-11-18 14:40:17.700,99.0,-1805.0,3678.0,10694.0
2024-11-18 14:40:17.720,99.0,-1805.0,3678.0,10694.166666666666
2024-11-18 14:40:17.740,99.0,-1805.0,3678.0,10694.333333333334
2024-11-18 14:40:17.760,99.0,-1805.0,3678.0,10694.5
2024-11-18 14:40:17.780,99.0,-1805.0,3678.0,10694.666666666666
2024-11-18 14:40:17.800,99.0,-1805.0,3678.0,10694.833333333334
2024-11-18 14:40:17.820,99.0,-1805.0,3678.0,10695.0
2024-11-18 14:40:17.840,99.0,-1805.0,3678.0,10695.166666666666
2024-11-18 14:40:17.860,99.0,-1805.0,3678.0,10695.333333333334
2024-11-18 14:40:17.880,99.0,-1805.0,3678.0,10695.5
2024-11-18 14:40:17.900,99.0,-1805.0,3678.0,10695.666666666666
2024-11-18 14:40:17.920,99.0,-1805.0,3678.0,10695.833333333334
2024-11-18 14:40:17.940,99.0,-1805.0,3678.0,10696.0
2024-11-18 14:40:17.960,99.0,-1805.0,3678.0,10696.0
2024-11-18 14:40:17.980,99.0,-1805.0,3678.0,10696.0
2024-11-18 14:40:18.000,99.0,-1805.0,3678.0,10696.0
2024-11-18 14:40:18.020,99.0,-1805.0,3678.0,10696.0
2024-11-18 14:40:18.040,99.0,-1805.0,3678.0,10696.0
2024-11-18 14:40:18.060,99.0,-1805.0,3678.0,10696.0
2024-11-18 14:40:18.080,99.0,-1805.0,3678.0,10696.0
2024-11-18 14:40:18.100,99.0,-1805.0,3678.0,10696.0
2024-11-18 14:40:18.120,99.0,-1805.0,3678.0,10696.0
2024-11-18 14:40:18.140,99.0,-1805.0,3678.0,10696.0
2024-11-18 14:40:18.160,99.0,-1805.0,3678.0,10696.0
2024-11-18 14:40:18.180,99.0,-1805.0,3678.0,10696.0
2024-11-18 14:40:18.200,99.0,-1805.0,3678.0,10696.0
2024-11-18 14:40:18.220,99.0,-1805.0,3678.0,10695.5
2024-11-18 14:40:18.240,99.0,-1805.0,3678.0,10695.0
2024-11-18 14:40:18.260,99.0,-1805.0,3678.0,10694.5
2024-11-18 14:40:18.280,99.0,-1805.0,3678.0,10694.0
2024-11-18 14:40:18.300,99.0,-1805.0,3678.0,10693.5
2024-11-18 14:40:18.320,99.0,-1805.0,3678.0,10693.0
2024-11-18 14:40:18.340,99.0,-1805.0,3678.0,10692.5
2024-11-18 14:40:18.360,99.0,-1805.0,3678.0,10692.0
2024-11-18 14:40:18.380,99.0,-1805.0,3678.0,10691.5
2024-11-18 14:40:18.400,99.0,-1805.0,3678.0,10691.0
2024-11-18 14:40:18.420,99.0,-1805.0,3678.0,10690.5
2024-11-18 14:40:18.440,99.0,-1805.0,3678.0,10690.0
2024-11-18 14:40:18.460,139.0,-1807.3846153846155,3547.153846153846,10692.153846153846
2024-11-18 14:40:18.480,179.0,-1809.7692307692307,3416.3076923076924,10694.307692307691
2024-11-18 14:40:18.500,219.0,-1812.1538461538462,3285.4615384615386,10696.461538461539
2024-11-18 14:40:18.520,259.0,-1814.5384615384614,3154.6153846153848,10698.615384615385
2024-11-18 14:40:18.540,299.0,-1816.923076923077,3023.769230769231,10700.76923076923
2024-11-18 14:40:18.560,339.0,-1819.3076923076924,2892.923076923077,10702.923076923076
2024-11-18 14:40:18.580,379.0,-1821.6923076923076,2762.0769230769233,10705.076923076924
2024-11-18 14:40:18.600,419.0,-1824.076923076923,2631.2307692307695,10707.23076923077
2024-11-18 14:40:18.620,459.0,-1826.4615384615386,2500.3846153846152,10709.384615384615
2024-11-18 14:40:18.640,499.0,-1828.8461538461538,2369.5384615384614,10711.538461538461
2024-11-18 14:40:18.660,539.0,-1831.2307692307693,2238.6923076923076,10713.692307692309
2024-11-18 14:40:18.680,579.0,-1833.6153846153845,2107.846153846154,10715.846153846154
2024-11-18 14:40:18.700,619.0,-1836.0,1977.0,10718.0
2024-11-18 14:40:18.720,438.58333333333337,-1661.1666666666667,1812.5,10719.0
2024-11-18 14:40:18.740,258.1666666666667,-1486.3333333333333,1648.0,10720.0
2024-11-18 14:40:18.760,77.75000000000003,-1311.5,1483.5,10721.0
2024-11-18 14:40:18.780,-102.66666666666663,-1136.6666666666665,1319.0,10722.0
2024-11-18 14:40:18.800,-283.08333333333326,-961.8333333333333,1154.5,10723.0
2024-11-18 14:40:18.820,-463.49999999999994,-787.0,990.0,10724.0
2024-11-18 14:40:18.840,-643.9166666666666,-612.1666666666666,825.5,10725.0
2024-11-18 14:40:18.860,-824.3333333333333,-437.33333333333326,661.0,10726.0
2024-11-18 14:40:18.880,-1004.7499999999999,-262.4999999999999,496.5,10727.0
2024-11-18 14:40:18.900,-1185.1666666666665,-87.66666666666657,332.0,10728.0
2024-11-18 14:40:18.920,-1365.5833333333333,87.16666666666677,167.5,10729.0
2024-11-18 14:40:18.940,-1546.0,262.0,3.0,10730.0
2024-11-18 14:40:18.960,-1553.6923076923076,102.23076923076923,159.3846153846154,10729.461538461539
2024-11-18 14:40:18.980,-1561.3846153846155,-57.53846153846155,315.7692307692308,10728.923076923076
2024-11-18 14:40:19.000,-1569.076923076923,-217.30769230769232,472.1538461538462,10728.384615384615
2024-11-18 14:40:19.020,-1576.7692307692307,-377.0769230769231,628.5384615384615,10727.846153846154
2024-11-18 14:40:19.040,-1584.4615384615386,-536.8461538461538,784.9230769230769,10727.307692307691
2024-11-18 14:40:19.060,-1592.1538461538462,-696.6153846153846,941.3076923076924,10726.76923076923
2024-11-18 14:40:19.080,-1599.8461538461538,-856.3846153846155,1097.6923076923076,10726.23076923077
2024-11-18 14:40:19.100,-1607.5384615384614,-1016.1538461538462,1254.076923076923,10725.692307692309
2024-11-18 14:40:19.120,-1615.2307692307693,-1175.923076923077,1410.4615384615386,10725.153846153846
2024-11-18 14:40:19.140,-1622.923076923077,-1335.6923076923076,1566.8461538461538,10724.615384615385
2024-11-18 14:40:19.160,-1630.6153846153845,-1495.4615384615386,1723.2307692307693,10724.076923076924
2024-11-18 14:40:19.180,-1638.3076923076924,-1655.2307692307693,1879.6153846153848,10723.538461538461
2024-11-18 14:40:19.200,-1646.0,-1815.0,2036.0,10723.0
2024-11-18 14:40:19.220,-1510.9333333333334,-1671.9333333333334,2034.6,10723.0
2024-11-18 14:40:19.240,-1375.8666666666668,-1528.8666666666668,2033.2,10723.0
2024-11-18 14:40:19.260,-1240.8,-1385.8,2031.8,10723.0
2024-11-18 14:40:19.280,-1105.7333333333333,-1242.7333333333333,2030.4,10723.0
2024-11-18 14:40:19.300,-970.6666666666667,-1099.6666666666667,2029.0,10723.0
2024-11-18 14:40:19.320,-835.6,-956.6,2027.6,10723.0
2024-11-18 14:40:19.340,-700.5333333333333,-813.5333333333333,2026.2,10723.0
2024-11-18 14:40:19.360,-565.4666666666667,-670.4666666666667,2024.8,10723.0
2024-11-18 14:40:19.380,-430.40000000000003,-527.4000000000001,2023.4,10723.0
2024-11-18 14:40:19.400,-295.33333333333337,-384.33333333333337,2022.0,10723.0
2024-11-18 14:40:19.420,-160.2666666666667,-241.2666666666667,2020.6,10723.0
2024-11-18 14:40:19.440,-25.200000000000045,-98.20000000000005,2019.2,10723.0
2024-11-18 14:40:19.460,109.86666666666662,44.86666666666662,2017.8,10723.0
2024-11-18 14:40:19.480,244.93333333333328,187.93333333333328,2016.4,10723.0
2024-11-18 14:40:19.500,380.0,331.0,2015.0,10723.0
2024-11-18 14:40:19.520,380.3,329.7,2014.2,10722.9
2024-11-18 14:40:19.540,380.6,328.4,2013.4,10722.8
2024-11-18 14:40:19.560,380.9,327.1,2012.6,10722.7
2024-11-18 14:40:19.580,381.2,325.8,2011.8,10722.6
2024-11-18 14:40:19.600,381.5,324.5,2011.0,10722.5
2024-11-18 14:40:19.620,381.8,323.2,2010.2,10722.4
2024-11-18 14:40:19.640,382.1,321.9,2009.4,10722.3
2024-11-18 14:40:19.660,382.4,320.6,2008.6,10722.2
2024-11-18 14:40:19.680,382.7,319.3,2007.8,10722.1
2024-11-18 14:40:19.700,383.0,318.0,2007.0,10722.0
2024-11-18 14:40:19.720,382.5,316.9,2006.8,10722.0
2024-11-18 14:40:19.740,382.0,315.8,2006.6,10722.0
2024-11-18 14:40:19.760,381.5,314.7,2006.4,10722.0
2024-11-18 14:40:19.780,381.0,313.6,2006.2,10722.0
2024-11-18 14:40:19.800,380.5,312.5,2006.0,10722.0
2024-11-18 14:40:19.820,380.0,311.4,2005.8,10722.0
2024-11-18 14:40:19.840,379.5,310.3,2005.6,10722.0
2024-11-18 14:40:19.860,379.0,309.2,2005.4,10722.0
2024-11-18 14:40:19.880,378.5,308.1,2005.2,10722.0
2024-11-18 14:40:19.900,378.0,307.0,2005.0,10722.0
2024-11-18 14:40:19.920,208.08333333333334,308.1666666666667,2004.0,10722.083333333334
2024-11-18 14:40:19.940,38.166666666666686,309.3333333333333,2003.0,10722.166666666666
2024-11-18 14:40:19.960,-131.74999999999997,310.5,2002.0,10722.25
2024-11-18 14:40:19.980,-301.66666666666663,311.6666666666667,2001.0,10722.333333333334
2024-11-18 14:40:20.000,-471.58333333333326,312.8333333333333,2000.0,10722.416666666666
2024-11-18 14:40:20.020,-641.5,314.0,1999.0,10722.5
2024-11-18 14:40:20.040,-811.4166666666666,315.1666666666667,1998.0,10722.583333333334
2024-11-18 14:40:20.060,-981.3333333333333,316.3333333333333,1997.0,10722.666666666666
2024-11-18 14:40:20.080,-1151.25,317.5,1996.0,10722.75
2024-11-18 14:40:20.100,-1321.1666666666665,318.6666666666667,1995.0,10722.833333333334
2024-11-18 14:40:20.120,-1491.0833333333333,319.8333333333333,1994.0,10722.916666666666
2024-11-18 14:40:20.140,-1661.0,321.0,1993.0,10723.0
2024-11-18 14:40:20.160,-1504.4615384615386,320.0769230769231,1991.6923076923076,10722.615384615385
2024-11-18 14:40:20.180,-1347.923076923077,319.15384615384613,1990.3846153846155,10722.23076923077
2024-11-18 14:40:20.200,-1191.3846153846152,318.2307692307692,1989.076923076923,10721.846153846154
2024-11-18 14:40:20.220,-1034.8461538461538,317.3076923076923,1987.7692307692307,10721.461538461539
2024-11-18 14:40:20.240,-878.3076923076923,316.38461538461536,1986.4615384615386,10721.076923076924
2024-11-18 14:40:20.260,-721.7692307692307,315.46153846153845,1985.1538461538462,10720.692307692309
2024-11-18 14:40:20.280,-565.2307692307692,314.53846153846155,1983.8461538461538,10720.307692307691
2024-11-18 14:40:20.300,-408.6923076923076,313.61538461538464,1982.5384615384614,10719.923076923076
2024-11-18 14:40:20.320,-252.15384615384608,312.6923076923077,1981.2307692307693,10719.538461538461
2024-11-18 14:40:20.340,-95.61538461538453,311.7692307692308,1979.923076923077,10719.153846153846
2024-11-18 14:40:20.360,60.92307692307702,310.84615384615387,1978.6153846153845,10718.76923076923
2024-11-18 14:40:20.380,217.46153846153857,309.9230769230769,1977.3076923076924,10718.384615384615
2024-11-18 14:40:20.400,374.0,309.0,1976.0,10718.0
2024-11-18 14:40:20.420,374.6666666666667,311.6666666666667,1975.3333333333333,10718.0
2024-11-18 14:40:20.440,375.3333333333333,314.3333333333333,1974.6666666666667,10718.0
2024-11-18 14:40:20.460,376.0,317.0,1974.0,10718.0
2024-11-18 14:40:20.480,376.6666666666667,319.6666666666667,1973.3333333333333,10718.0
2024-11-18 14:40:20.500,377.3333333333333,322.3333333333333,1972.6666666666667,10718.0
2024-11-18 14:40:20.520,378.0,325.0,1972.0,10718.0
2024-11-18 14:40:20.540,378.6666666666667,327.6666666666667,1971.3333333333333,10718.0
2024-11-18 14:40:20.560,379.3333333333333,330.3333333333333,1970.6666666666667,10718.0
2024-11-18 14:40:20.580,380.0,333.0,1970.0,10718.0
2024-11-18 14:40:20.600,380.6666666666667,335.6666666666667,1969.3333333333333,10718.0
2024-11-18 14:40:20.620,381.3333333333333,338.3333333333333,1968.6666666666667,10718.0
2024-11-18 14:40:20.640,382.0,341.0,1968.0,10718.0
2024-11-18 14:40:20.660,378.53846153846155,343.0769230769231,2121.230769230769,10718.615384615385
2024-11-18 14:40:20.680,375.0769230769231,345.15384615384613,2274.4615384615386,10719.23076923077
2024-11-18 14:40:20.700,371.61538461538464,347.2307692307692,2427.6923076923076,10719.846153846154
2024-11-18 14:40:20.720,368.15384615384613,349.3076923076923,2580.923076923077,10720.461538461539
2024-11-18 14:40:20.740,364.6923076923077,351.38461538461536,2734.153846153846,10721.076923076924
2024-11-18 14:40:20.760,361.2307692307692,353.46153846153845,2887.3846153846152,10721.692307692309
2024-11-18 14:40:20.780,357.7692307692308,355.53846153846155,3040.6153846153848,10722.307692307691
2024-11-18 14:40:20.800,354.3076923076923,357.61538461538464,3193.846153846154,10722.923076923076
2024-11-18 14:40:20.820,350.84615384615387,359.6923076923077,3347.076923076923,10723.538461538461
2024-11-18 14:40:20.840,347.38461538461536,361.7692307692308,3500.3076923076924,10724.153846153846
2024-11-18 14:40:20.860,343.9230769230769,363.84615384615387,3653.5384615384614,10724.76923076923
2024-11-18 14:40:20.880,340.46153846153845,365.9230769230769,3806.7692307692305,10725.384615384615
2024-11-18 14:40:20.900,337.0,368.0,3960.0,10726.0
2024-11-18 14:40:20.920,156.25,359.75,3777.75,10726.25
2024-11-18 14:40:20.940,-24.5,351.5,3595.5,10726.5
2024-11-18 14:40:20.960,-205.25,343.25,3413.25,10726.75
2024-11-18 14:40:20.980,-386.0,335.0,3231.0,10727.0
2024-11-18 14:40:21.000,-566.75,326.75,3048.75,10727.25
2024-11-18 14:40:21.020,-747.5,318.5,2866.5,10727.5
2024-11-18 14:40:21.040,-928.25,310.25,2684.25,10727.75
2024-11-18 14:40:21.060,-1109.0,302.0,2502.0,10728.0
2024-11-18 14:40:21.080,-1289.75,293.75,2319.75,10728.25
2024-11-18 14:40:21.100,-1470.5,285.5,2137.5,10728.5
2024-11-18 14:40:21.120,-1651.25,277.25,1955.25,10728.75
2024-11-18 14:40:21.140,-1832.0,269.0,1773.0,10729.0
2024-11-18 14:40:21.160,-1681.6153846153845,270.61538461538464,1768.3846153846155,10728.692307692309
2024-11-18 14:40:21.180,-1531.2307692307693,272.2307692307692,1763.7692307692307,10728.384615384615
2024-11-18 14:40:21.200,-1380.8461538461538,273.84615384615387,1759.1538461538462,10728.076923076924
2024-11-18 14:40:21.220,-1230.4615384615386,275.46153846153845,1754.5384615384614,10727.76923076923
2024-11-18 14:40:21.240,-1080.076923076923,277.0769230769231,1749.923076923077,10727.461538461539
2024-11-18 14:40:21.260,-929.6923076923076,278.6923076923077,1745.3076923076924,10727.153846153846
2024-11-18 14:40:21.280,-779.3076923076923,280.3076923076923,1740.6923076923076,10726.846153846154
2024-11-18 14:40:21.300,-628.9230769230769,281.9230769230769,1736.076923076923,10726.538461538461
2024-11-18 14:40:21.320,-478.53846153846155,283.53846153846155,1731.4615384615386,10726.23076923077
2024-11-18 14:40:21.340,-328.15384615384613,285.15384615384613,1726.8461538461538,10725.923076923076
2024-11-18 14:40:21.360,-177.76923076923075,286.7692307692308,1722.2307692307693,10725.615384615385
2024-11-18 14:40:21.380,-27.38461538461536,288.38461538461536,1717.6153846153845,10725.307692307691
2024-11-18 14:40:21.400,123.0,290.0,1713.0,10725.0
2024-11-18 14:40:21.420,-43.08333333333334,293.75,1712.5,10724.916666666666
2024-11-18 14:40:21.440,-209.16666666666669,297.5,1712.0,10724.833333333334
2024-11-18 14:40:21.460,-375.25,301.25,1711.5,10724.75
2024-11-18 14:40:21.480,-541.3333333333334,305.0,1711.0,10724.666666666666
2024-11-18 14:40:21.500,-707.4166666666667,308.75,1710.5,10724.583333333334
2024-11-18 14:40:21.520,-873.5,312.5,1710.0,10724.5
2024-11-18 14:40:21.540,-1039.5833333333335,316.25,1709.5,10724.416666666666
2024-11-18 14:40:21.560,-1205.6666666666667,320.0,1709.0,10724.333333333334
2024-11-18 14:40:21.580,-1371.75,323.75,1708.5,10724.25
2024-11-18 14:40:21.600,-1537.8333333333335,327.5,1708.0,10724.166666666666
2024-11-18 14:40:21.620,-1703.9166666666667,331.25,1707.5,10724.083333333334
2024-11-18 14:40:21.640,-1870.0,335.0,1707.0,10724.0
2024-11-18 14:40:21.660,-1872.3846153846155,334.15384615384613,1706.1538461538462,10723.923076923076
2024-11-18 14:40:21.680,-1874.7692307692307,333.3076923076923,1705.3076923076924,10723.846153846154
2024-11-18 14:40:21.700,-1877.1538461538462,332.46153846153845,1704.4615384615386,10723.76923076923
2024-11-18 14:40:21.720,-1879.5384615384614,331.61538461538464,1703.6153846153845,10723.692307692309
2024-11-18 14:40:21.740,-1881.923076923077,330.7692307692308,1702.7692307692307,10723.615384615385
2024-11-18 14:40:21.760,-1884.3076923076924,329.9230769230769,1701.923076923077,10723.538461538461
2024-11-18 14:40:21.780,-1886.6923076923076,329.0769230769231,1701.076923076923,10723.461538461539
2024-11-18 14:40:21.800,-1889.076923076923,328.2307692307692,1700.2307692307693,10723.384615384615
2024-11-18 14:40:21.820,-1891.4615384615386,327.38461538461536,1699.3846153846155,10723.307692307691
2024-11-18 14:40:21.840,-1893.8461538461538,326.53846153846155,1698.5384615384614,10723.23076923077
2024-11-18 14:40:21.860,-1896.2307692307693,325.6923076923077,1697.6923076923076,10723.153846153846
2024-11-18 14:40:21.880,-1898.6153846153845,324.84615384615387,1696.8461538461538,10723.076923076924
2024-11-18 14:40:21.900,-1901.0,324.0,1696.0,10723.0
2024-11-18 14:40:21.920,-1900.5,321.6666666666667,1695.5,10723.083333333334
2024-11-18 14:40:21.940,-1900.0,319.3333333333333,1695.0,10723.166666666666
2024-11-18 14:40:21.960,-1899.5,317.0,1694.5,10723.25
2024-11-18 14:40:21.980,-1899.0,314.6666666666667,1694.0,10723.333333333334
2024-11-18 14:40:22.000,-1898.5,312.3333333333333,1693.5,10723.416666666666
2024-11-18 14:40:22.020,-1898.0,310.0,1693.0,10723.5
2024-11-18 14:40:22.040,-1897.5,307.6666666666667,1692.5,10723.583333333334
2024-11-18 14:40:22.060,-1897.0,305.3333333333333,1692.0,10723.666666666666
2024-11-18 14:40:22.080,-1896.5,303.0,1691.5,10723.75
2024-11-18 14:40:22.100,-1896.0,300.6666666666667,1691.0,10723.833333333334
2024-11-18 14:40:22.120,-1895.5,298.3333333333333,1690.5,10723.916666666666
2024-11-18 14:40:22.140,-1895.0,296.0,1690.0,10724.0
2024-11-18 14:40:22.160,-1894.6,294.4,1689.5,10724.2
2024-11-18 14:40:22.180,-1894.2,292.8,1689.0,10724.4
2024-11-18 14:40:22.200,-1893.8,291.2,1688.5,10724.6
2024-11-18 14:40:22.220,-1893.4,289.6,1688.0,10724.8
2024-11-18 14:40:22.240,-1893.0,288.0,1687.5,10725.0
2024-11-18 14:40:22.260,-1892.6,286.4,1687.0,10725.2
2024-11-18 14:40:22.280,-1892.2,284.8,1686.5,10725.4
2024-11-18 14:40:22.300,-1891.8,283.2,1686.0,10725.6
2024-11-18 14:40:22.320,-1891.4,281.6,1685.5,10725.8
2024-11-18 14:40:22.340,-1891.0,280.0,1685.0,10726.0
2024-11-18 14:40:22.360,-1890.5384615384614,282.2307692307692,1685.6923076923076,10725.76923076923
2024-11-18 14:40:22.380,-1890.076923076923,284.46153846153845,1686.3846153846155,10725.538461538461
2024-11-18 14:40:22.400,-1889.6153846153845,286.6923076923077,1687.076923076923,10725.307692307691
2024-11-18 14:40:22.420,-1889.1538461538462,288.9230769230769,1687.7692307692307,10725.076923076924
2024-11-18 14:40:22.440,-1888.6923076923076,291.15384615384613,1688.4615384615386,10724.846153846154
2024-11-18 14:40:22.460,-1888.2307692307693,293.38461538461536,1689.1538461538462,10724.615384615385
2024-11-18 14:40:22.480,-1887.7692307692307,295.61538461538464,1689.8461538461538,10724.384615384615
2024-11-18 14:40:22.500,-1887.3076923076924,297.84615384615387,1690.5384615384614,10724.153846153846
2024-11-18 14:40:22.520,-1886.8461538461538,300.0769230769231,1691.2307692307693,10723.923076923076
2024-11-18 14:40:22.540,-1886.3846153846155,302.3076923076923,1691.923076923077,10723.692307692309
2024-11-18 14:40:22.560,-1885.923076923077,304.53846153846155,1692.6153846153845,10723.461538461539
2024-11-18 14:40:22.580,-1885.4615384615386,306.7692307692308,1693.3076923076924,10723.23076923077
2024-11-18 14:40:22.600,-1885.0,309.0,1694.0,10723.0
2024-11-18 14:40:22.620,-1885.625,308.3125,1694.0,10722.875
2024-11-18 14:40:22.640,-1886.25,307.625,1694.0,10722.75
2024-11-18 14:40:22.660,-1886.875,306.9375,1694.0,10722.625
2024-11-18 14:40:22.680,-1887.5,306.25,1694.0,10722.5
2024-11-18 14:40:22.700,-1888.125,305.5625,1694.0,10722.375
2024-11-18 14:40:22.720,-1888.75,304.875,1694.0,10722.25
2024-11-18 14:40:22.740,-1889.375,304.1875,1694.0,10722.125
2024-11-18 14:40:22.760,-1890.0,303.5,1694.0,10722.0
2024-11-18 14:40:22.780,-1890.625,302.8125,1694.0,10721.875
2024-11-18 14:40:22.800,-1891.25,302.125,1694.0,10721.75
2024-11-18 14:40:22.820,-1891.875,301.4375,1694.0,10721.625
2024-11-18 14:40:22.840,-1892.5,300.75,1694.0,10721.5
2024-11-18 14:40:22.860,-1893.125,300.0625,1694.0,10721.375
2024-11-18 14:40:22.880,-1893.75,299.375,1694.0,10721.25
2024-11-18 14:40:22.900,-1894.375,298.6875,1694.0,10721.125
2024-11-18 14:40:22.920,-1895.0,298.0,1694.0,10721.0
2024-11-18 14:40:22.940,-1894.3846153846155,297.84615384615387,1694.7692307692307,10721.153846153846
2024-11-18 14:40:22.960,-1893.7692307692307,297.6923076923077,1695.5384615384614,10721.307692307691
2024-11-18 14:40:22.980,-1893.1538461538462,297.53846153846155,1696.3076923076924,10721.461538461539
2024-11-18 14:40:23.000,-1892.5384615384614,297.38461538461536,1697.076923076923,10721.615384615385
2024-11-18 14:40:23.020,-1891.923076923077,297.2307692307692,1697.8461538461538,10721.76923076923
2024-11-18 14:40:23.040,-1891.3076923076924,297.0769230769231,1698.6153846153845,10721.923076923076
2024-11-18 14:40:23.060,-1890.6923076923076,296.9230769230769,1699.3846153846155,10722.076923076924
2024-11-18 14:40:23.080,-1890.076923076923,296.7692307692308,1700.1538461538462,10722.23076923077
2024-11-18 14:40:23.100,-1889.4615384615386,296.61538461538464,1700.923076923077,10722.384615384615
2024-11-18 14:40:23.120,-1888.8461538461538,296.46153846153845,1701.6923076923076,10722.538461538461
2024-11-18 14:40:23.140,-1888.2307692307693,296.3076923076923,1702.4615384615386,10722.692307692309
2024-11-18 14:40:23.160,-1887.6153846153845,296.15384615384613,1703.2307692307693,10722.846153846154
2024-11-18 14:40:23.180,-1887.0,296.0,1704.0,10723.0
2024-11-18 14:40:23.200,-1886.5833333333333,296.0,1703.6666666666667,10722.5
2024-11-18 14:40:23.220,-1886.1666666666667,296.0,1703.3333333333333,10722.0
2024-11-18 14:40:23.240,-1885.75,296.0,1703.0,10721.5
2024-11-18 14:40:23.260,-1885.3333333333333,296.0,1702.6666666666667,10721.0
2024-11-18 14:40:23.280,-1884.9166666666667,296.0,1702.3333333333333,10720.5
2024-11-18 14:40:23.300,-1884.5,296.0,1702.0,10720.0
2024-11-18 14:40:23.320,-1884.0833333333333,296.0,1701.6666666666667,10719.5
2024-11-18 14:40:23.340,-1883.6666666666667,296.0,1701.3333333333333,10719.0
2024-11-18 14:40:23.360,-1883.25,296.0,1701.0,10718.5
2024-11-18 14:40:23.380,-1882.8333333333333,296.0,1700.6666666666667,10718.0
2024-11-18 14:40:23.400,-1882.4166666666667,296.0,1700.3333333333333,10717.5
2024-11-18 14:40:23.420,-1882.0,296.0,1700.0,10717.0
2024-11-18 14:40:23.440,-1882.0,295.53846153846155,1699.7692307692307,10717.144736842105
2024-11-18 14:40:23.460,-1882.0,295.0769230769231,1699.5384615384614,10717.28947368421
2024-11-18 14:40:23.480,-1882.0,294.61538461538464,1699.3076923076924,10717.434210526315
2024-11-18 14:40:23.500,-1882.0,294.15384615384613,1699.076923076923,10717.578947368422
2024-11-18 14:40:23.520,-1882.0,293.6923076923077,1698.8461538461538,10717.723684210527
2024-11-18 14:40:23.540,-1882.0,293.2307692307692,1698.6153846153845,10717.868421052632
2024-11-18 14:40:23.560,-1882.0,292.7692307692308,1698.3846153846155,10718.013157894737
2024-11-18 14:40:23.580,-1882.0,292.3076923076923,1698.1538461538462,10718.157894736842
2024-11-18 14:40:23.600,-1882.0,291.84615384615387,1697.923076923077,10718.302631578947
2024-11-18 14:40:23.620,-1882.0,291.38461538461536,1697.6923076923076,10718.447368421053
2024-11-18 14:40:23.640,-1882.0,290.9230769230769,1697.4615384615386,10718.592105263158
2024-11-18 14:40:23.660,-1882.0,290.46153846153845,1697.2307692307693,10718.736842105263
2024-11-18 14:40:23.680,-1882.0,290.0,1697.0,10718.881578947368
2024-11-18 14:40:23.700,-1881.72,289.98,1696.88,10719.026315789473
2024-11-18 14:40:23.720,-1881.44,289.96,1696.76,10719.171052631578
2024-11-18 14:40:23.740,-1881.16,289.94,1696.64,10719.315789473685
2024-11-18 14:40:23.760,-1880.88,289.92,1696.52,10719.46052631579
2024-11-18 14:40:23.780,-1880.6,289.9,1696.4,10719.605263157895
2024-11-18 14:40:23.800,-1880.32,289.88,1696.28,10719.75
2024-11-18 14:40:23.820,-1880.04,289.86,1696.16,10719.894736842105
2024-11-18 14:40:23.840,-1879.76,289.84,1696.04,10720.03947368421
2024-11-18 14:40:23.860,-1879.48,289.82,1695.92,10720.184210526315
2024-11-18 14:40:23.880,-1879.2,289.8,1695.8,10720.328947368422
2024-11-18 14:40:23.900,-1878.92,289.78,1695.68,10720.473684210527
2024-11-18 14:40:23.920,-1878.64,289.76,1695.56,10720.618421052632
2024-11-18 14:40:23.940,-1878.36,289.74,1695.44,10720.763157894737
2024-11-18 14:40:23.960,-1878.08,289.72,1695.32,10720.907894736842
2024-11-18 14:40:23.980,-1877.8,289.7,1695.2,10721.052631578947
2024-11-18 14:40:24.000,-1877.52,289.68,1695.08,10721.197368421053
2024-11-18 14:40:24.020,-1877.24,289.66,1694.96,10721.342105263158
2024-11-18 14:40:24.040,-1876.96,289.64,1694.84,10721.486842105263
2024-11-18 14:40:24.060,-1876.68,289.62,1694.72,10721.631578947368
2024-11-18 14:40:24.080,-1876.4,289.6,1694.6,10721.776315789473
2024-11-18 14:40:24.100,-1876.12,289.58,1694.48,10721.921052631578
2024-11-18 14:40:24.120,-1875.84,289.56,1694.36,10722.065789473685
2024-11-18 14:40:24.140,-1875.56,289.54,1694.24,10722.21052631579
2024-11-18 14:40:24.160,-1875.28,289.52,1694.12,10722.355263157895
2024-11-18 14:40:24.180,-1875.0,289.5,1694.0,10722.5
2024-11-18 14:40:24.200,-1874.5833333333333,288.2916666666667,1693.6666666666667,10722.708333333334
2024-11-18 14:40:24.220,-1874.1666666666667,287.0833333333333,1693.3333333333333,10722.916666666666
2024-11-18 14:40:24.240,-1873.75,285.875,1693.0,10723.125
2024-11-18 14:40:24.260,-1873.3333333333333,284.6666666666667,1692.6666666666667,10723.333333333334
2024-11-18 14:40:24.280,-1872.9166666666667,283.4583333333333,1692.3333333333333,10723.541666666666
2024-11-18 14:40:24.300,-1872.5,282.25,1692.0,10723.75
2024-11-18 14:40:24.320,-1872.0833333333333,281.0416666666667,1691.6666666666667,10723.958333333334
2024-11-18 14:40:24.340,-1871.6666666666667,279.8333333333333,1691.3333333333333,10724.166666666666
2024-11-18 14:40:24.360,-1871.25,278.625,1691.0,10724.375
2024-11-18 14:40:24.380,-1870.8333333333333,277.4166666666667,1690.6666666666667,10724.583333333334
2024-11-18 14:40:24.400,-1870.4166666666667,276.2083333333333,1690.3333333333333,10724.791666666666
2024-11-18 14:40:24.420,-1870.0,275.0,1690.0,10725.0
2024-11-18 14:40:24.440,-1869.6923076923076,275.7692307692308,1689.3846153846155,10724.76923076923
2024-11-18 14:40:24.460,-1869.3846153846155,276.53846153846155,1688.7692307692307,10724.538461538461
2024-11-18 14:40:24.480,-1869.076923076923,277.3076923076923,1688.1538461538462,10724.307692307691
2024-11-18 14:40:24.500,-1868.7692307692307,278.0769230769231,1687.5384615384614,10724.076923076924
2024-11-18 14:40:24.520,-1868.4615384615386,278.84615384615387,1686.923076923077,10723.846153846154
2024-11-18 14:40:24.540,-1868.1538461538462,279.61538461538464,1686.3076923076924,10723.615384615385
2024-11-18 14:40:24.560,-1867.8461538461538,280.38461538461536,1685.6923076923076,10723.384615384615
2024-11-18 14:40:24.580,-1867.5384615384614,281.15384615384613,1685.076923076923,10723.153846153846
2024-11-18 14:40:24.600,-1867.2307692307693,281.9230769230769,1684.4615384615386,10722.923076923076
2024-11-18 14:40:24.620,-1866.923076923077,282.6923076923077,1683.8461538461538,10722.692307692309
2024-11-18 14:40:24.640,-1866.6153846153845,283.46153846153845,1683.2307692307693,10722.461538461539
2024-11-18 14:40:24.660,-1866.3076923076924,284.2307692307692,1682.6153846153845,10722.23076923077
2024-11-18 14:40:24.680,-1866.0,285.0,1682.0,10722.0
2024-11-18 14:40:24.700,-1866.9166666666667,284.6666666666667,1683.4166666666667,10722.333333333334
2024-11-18 14:40:24.720,-1867.8333333333333,284.3333333333333,1684.8333333333333,10722.666666666666
2024-11-18 14:40:24.740,-1868.75,284.0,1686.25,10723.0
2024-11-18 14:40:24.760,-1869.6666666666667,283.6666666666667,1687.6666666666667,10723.333333333334
2024-11-18 14:40:24.780,-1870.5833333333333,283.3333333333333,1689.0833333333333,10723.666666666666
2024-11-18 14:40:24.800,-1871.5,283.0,1690.5,10724.0
2024-11-18 14:40:24.820,-1872.4166666666667,282.6666666666667,1691.9166666666667,10724.333333333334
2024-11-18 14:40:24.840,-1873.3333333333333,282.3333333333333,1693.3333333333333,10724.666666666666
2024-11-18 14:40:24.860,-1874.25,282.0,1694.75,10725.0
2024-11-18 14:40:24.880,-1875.1666666666667,281.6666666666667,1696.1666666666667,10725.333333333334
2024-11-18 14:40:24.900,-1876.0833333333333,281.3333333333333,1697.5833333333333,10725.666666666666
2024-11-18 14:40:24.920,-1877.0,281.0,1699.0,10726.0
2024-11-18 14:40:24.940,-1876.3846153846155,280.6923076923077,1698.4615384615386,10725.384615384615
2024-11-18 14:40:24.960,-1875.7692307692307,280.38461538461536,1697.923076923077,10724.76923076923
2024-11-18 14:40:24.980,-1875.1538461538462,280.0769230769231,1697.3846153846155,10724.153846153846
2024-11-18 14:40:25.000,-1874.5384615384614,279.7692307692308,1696.8461538461538,10723.538461538461
2024-11-18 14:40:25.020,-1873.923076923077,279.46153846153845,1696.3076923076924,10722.923076923076
2024-11-18 14:40:25.040,-1873.3076923076924,279.15384615384613,1695.7692307692307,10722.307692307691
2024-11-18 14:40:25.060,-1872.6923076923076,278.84615384615387,1695.2307692307693,10721.692307692309
2024-11-18 14:40:25.080,-1872.076923076923,278.53846153846155,1694.6923076923076,10721.076923076924
2024-11-18 14:40:25.100,-1871.4615384615386,278.2307692307692,1694.1538461538462,10720.461538461539
2024-11-18 14:40:25.120,-1870.8461538461538,277.9230769230769,1693.6153846153845,10719.846153846154
2024-11-18 14:40:25.140,-1870.2307692307693,277.61538461538464,1693.076923076923,10719.23076923077
2024-11-18 14:40:25.160,-1869.6153846153845,277.3076923076923,1692.5384615384614,10718.615384615385
2024-11-18 14:40:25.180,-1869.0,277.0,1692.0,10718.0
2024-11-18 14:40:25.200,-1869.5,277.1666666666667,1691.6666666666667,10718.333333333334
2024-11-18 14:40:25.220,-1870.0,277.3333333333333,1691.3333333333333,10718.666666666666
2024-11-18 14:40:25.240,-1870.5,277.5,1691.0,10719.0
2024-11-18 14:40:25.260,-1871.0,277.6666666666667,1690.6666666666667,10719.333333333334
2024-11-18 14:40:25.280,-1871.5,277.8333333333333,1690.3333333333333,10719.666666666666
2024-11-18 14:40:25.300,-1872.0,278.0,1690.0,10720.0
2024-11-18 14:40:25.320,-1872.5,278.1666666666667,1689.6666666666667,10720.333333333334
2024-11-18 14:40:25.340,-1873.0,278.3333333333333,1689.3333333333333,10720.666666666666
2024-11-18 14:40:25.360,-1873.5,278.5,1689.0,10721.0
2024-11-18 14:40:25.380,-1874.0,278.6666666666667,1688.6666666666667,10721.333333333334
2024-11-18 14:40:25.400,-1874.5,278.8333333333333,1688.3333333333333,10721.666666666666
2024-11-18 14:40:25.420,-1875.0,279.0,1688.0,10722.0
2024-11-18 14:40:25.440,-1874.076923076923,279.46153846153845,1688.6153846153845,10721.615384615385
2024-11-18 14:40:25.460,-1873.1538461538462,279.9230769230769,1689.2307692307693,10721.23076923077
2024-11-18 14:40:25.480,-1872.2307692307693,280.38461538461536,1689.8461538461538,10720.846153846154
2024-11-18 14:40:25.500,-1871.3076923076924,280.84615384615387,1690.4615384615386,10720.461538461539
2024-11-18 14:40:25.520,-1870.3846153846155,281.3076923076923,1691.076923076923,10720.076923076924
2024-11-18 14:40:25.540,-1869.4615384615386,281.7692307692308,1691.6923076923076,10719.692307692309
2024-11-18 14:40:25.560,-1868.5384615384614,282.2307692307692,1692.3076923076924,10719.307692307691
2024-11-18 14:40:25.580,-1867.6153846153845,282.6923076923077,1692.923076923077,10718.923076923076
2024-11-18 14:40:25.600,-1866.6923076923076,283.15384615384613,1693.5384615384614,10718.538461538461
2024-11-18 14:40:25.620,-1865.7692307692307,283.61538461538464,1694.1538461538462,10718.153846153846
2024-11-18 14:40:25.640,-1864.8461538461538,284.0769230769231,1694.7692307692307,10717.76923076923
2024-11-18 14:40:25.660,-1863.923076923077,284.53846153846155,1695.3846153846155,10717.384615384615
2024-11-18 14:40:25.680,-1863.0,285.0,1696.0,10717.0
2024-11-18 14:40:25.700,-1863.6666666666667,284.6666666666667,1695.6666666666667,10717.166666666666
2024-11-18 14:40:25.720,-1864.3333333333333,284.3333333333333,1695.3333333333333,10717.333333333334
2024-11-18 14:40:25.740,-1865.0,284.0,1695.0,10717.5
2024-11-18 14:40:25.760,-1865.6666666666667,283.6666666666667,1694.6666666666667,10717.666666666666
2024-11-18 14:40:25.780,-1866.3333333333333,283.3333333333333,1694.3333333333333,10717.833333333334
2024-11-18 14:40:25.800,-1867.0,283.0,1694.0,10718.0
2024-11-18 14:40:25.820,-1867.0,282.76,1694.0,10718.22
2024-11-18 14:40:25.840,-1867.0,282.52,1694.0,10718.44
2024-11-18 14:40:25.860,-1867.0,282.28,1694.0,10718.66
2024-11-18 14:40:25.880,-1867.0,282.04,1694.0,10718.88
2024-11-18 14:40:25.900,-1867.0,281.8,1694.0,10719.1
2024-11-18 14:40:25.920,-1867.0,281.56,1694.0,10719.32
2024-11-18 14:40:25.940,-1867.0,281.32,1694.0,10719.54
2024-11-18 14:40:25.960,-1867.0,281.08,1694.0,10719.76
2024-11-18 14:40:25.980,-1867.0,280.84,1694.0,10719.98
2024-11-18 14:40:26.000,-1867.0,280.6,1694.0,10720.2
2024-11-18 14:40:26.020,-1867.0,280.36,1694.0,10720.42
2024-11-18 14:40:26.040,-1867.0,280.12,1694.0,10720.64
2024-11-18 14:40:26.060,-1867.0,279.88,1694.0,10720.86
2024-11-18 14:40:26.080,-1867.0,279.64,1694.0,10721.08
2024-11-18 14:40:26.100,-1867.0,279.4,1694.0,10721.3
2024-11-18 14:40:26.120,-1867.0,279.16,1694.0,10721.52
2024-11-18 14:40:26.140,-1867.0,278.92,1694.0,10721.74
2024-11-18 14:40:26.160,-1867.0,278.68,1694.0,10721.96
2024-11-18 14:40:26.180,-1867.0,278.44,1694.0,10722.18
2024-11-18 14:40:26.200,-1867.0,278.2,1694.0,10722.4
2024-11-18 14:40:26.220,-1867.0,277.96,1694.0,10722.62
2024-11-18 14:40:26.240,-1867.0,277.72,1694.0,10722.84
2024-11-18 14:40:26.260,-1867.0,277.48,1694.0,10723.06
2024-11-18 14:40:26.280,-1867.0,277.24,1694.0,10723.28
2024-11-18 14:40:26.300,-1867.0,277.0,1694.0,10723.5
2024-11-18 14:40:26.320,-1867.0,277.0,1694.0,10723.125
2024-11-18 14:40:26.340,-1867.0,277.0,1694.0,10722.75
2024-11-18 14:40:26.360,-1867.0,277.0,1694.0,10722.375
2024-11-18 14:40:26.380,-1867.0,277.0,1694.0,10722.0
2024-11-18 14:40:26.400,-1867.0,277.0,1694.0,10721.625
2024-11-18 14:40:26.420,-1867.0,277.0,1694.0,10721.25
2024-11-18 14:40:26.440,-1867.0,277.0,1694.0,10720.875
2024-11-18 14:40:26.460,-1867.0,277.0,1694.0,10720.5
2024-11-18 14:40:26.480,-1867.0,277.0,1694.0,10720.125
2024-11-18 14:40:26.500,-1867.0,277.0,1694.0,10719.75
2024-11-18 14:40:26.520,-1867.0,277.0,1694.0,10719.375
2024-11-18 14:40:26.540,-1867.0,277.0,1694.0,10719.0
2024-11-18 14:40:26.560,-1867.0,277.0,1694.0,10719.307692307691
2024-11-18 14:40:26.580,-1867.0,277.0,1694.0,10719.615384615385
2024-11-18 14:40:26.600,-1867.0,277.0,1694.0,10719.923076923076
2024-11-18 14:40:26.620,-1867.0,277.0,1694.0,10720.23076923077
2024-11-18 14:40:26.640,-1867.0,277.0,1694.0,10720.538461538461
2024-11-18 14:40:26.660,-1867.0,277.0,1694.0,10720.846153846154
2024-11-18 14:40:26.680,-1867.0,277.0,1694.0,10721.153846153846
2024-11-18 14:40:26.700,-1867.0,277.0,1694.0,10721.461538461539
2024-11-18 14:40:26.720,-1867.0,277.0,1694.0,10721.76923076923
2024-11-18 14:40:26.740,-1867.0,277.0,1694.0,10722.076923076924
2024-11-18 14:40:26.760,-1867.0,277.0,1694.0,10722.384615384615
2024-11-18 14:40:26.780,-1867.0,277.0,1694.0,10722.692307692309
2024-11-18 14:40:26.800,-1867.0,277.0,1694.0,10723.0
2024-11-18 14:40:26.820,-1867.0,277.0,1694.0,10722.416666666666
2024-11-18 14:40:26.840,-1867.0,277.0,1694.0,10721.833333333334
2024-11-18 14:40:26.860,-1867.0,277.0,1694.0,10721.25
2024-11-18 14:40:26.880,-1867.0,277.0,1694.0,10720.666666666666
2024-11-18 14:40:26.900,-1867.0,277.0,1694.0,10720.083333333334
2024-11-18 14:40:26.920,-1867.0,277.0,1694.0,10719.5
2024-11-18 14:40:26.940,-1867.0,277.0,1694.0,10718.916666666666
2024-11-18 14:40:26.960,-1867.0,277.0,1694.0,10718.333333333334
2024-11-18 14:40:26.980,-1867.0,277.0,1694.0,10717.75
2024-11-18 14:40:27.000,-1867.0,277.0,1694.0,10717.166666666666
2024-11-18 14:40:27.020,-1867.0,277.0,1694.0,10716.583333333334
2024-11-18 14:40:27.040,-1867.0,277.0,1694.0,10716.0
2024-11-18 14:40:27.060,-1867.0,277.0,1694.0,10716.153846153846
2024-11-18 14:40:27.080,-1867.0,277.0,1694.0,10716.307692307691
2024-11-18 14:40:27.100,-1867.0,277.0,1694.0,10716.461538461539
2024-11-18 14:40:27.120,-1867.0,277.0,1694.0,10716.615384615385
2024-11-18 14:40:27.140,-1867.0,277.0,1694.0,10716.76923076923
2024-11-18 14:40:27.160,-1867.0,277.0,1694.0,10716.923076923076
2024-11-18 14:40:27.180,-1867.0,277.0,1694.0,10717.076923076924
2024-11-18 14:40:27.200,-1867.0,277.0,1694.0,10717.23076923077
2024-11-18 14:40:27.220,-1867.0,277.0,1694.0,10717.384615384615
2024-11-18 14:40:27.240,-1867.0,277.0,1694.0,10717.538461538461
2024-11-18 14:40:27.260,-1867.0,277.0,1694.0,10717.692307692309
2024-11-18 14:40:27.280,-1867.0,277.0,1694.0,10717.846153846154
2024-11-18 14:40:27.300,-1867.0,277.0,1694.0,10718.0
2024-11-18 14:40:27.320,-1867.0,277.0,1694.0,10717.916666666666
2024-11-18 14:40:27.340,-1867.0,277.0,1694.0,10717.833333333334
2024-11-18 14:40:27.360,-1867.0,277.0,1694.0,10717.75
2024-11-18 14:40:27.380,-1867.0,277.0,1694.0,10717.666666666666
2024-11-18 14:40:27.400,-1867.0,277.0,1694.0,10717.583333333334
2024-11-18 14:40:27.420,-1867.0,277.0,1694.0,10717.5
2024-11-18 14:40:27.440,-1867.0,277.0,1694.0,10717.416666666666
2024-11-18 14:40:27.460,-1867.0,277.0,1694.0,10717.333333333334
2024-11-18 14:40:27.480,-1867.0,277.0,1694.0,10717.25
2024-11-18 14:40:27.500,-1867.0,277.0,1694.0,10717.166666666666
2024-11-18 14:40:27.520,-1867.0,277.0,1694.0,10717.083333333334
2024-11-18 14:40:27.540,-1867.0,277.0,1694.0,10717.0
2024-11-18 14:40:27.560,-1867.0,277.0,1694.0,10717.384615384615
2024-11-18 14:40:27.580,-1867.0,277.0,1694.0,10717.76923076923
2024-11-18 14:40:27.600,-1867.0,277.0,1694.0,10718.153846153846
2024-11-18 14:40:27.620,-1867.0,277.0,1694.0,10718.538461538461
2024-11-18 14:40:27.640,-1867.0,277.0,1694.0,10718.923076923076
2024-11-18 14:40:27.660,-1867.0,277.0,1694.0,10719.307692307691
2024-11-18 14:40:27.680,-1867.0,277.0,1694.0,10719.692307692309
2024-11-18 14:40:27.700,-1867.0,277.0,1694.0,10720.076923076924
2024-11-18 14:40:27.720,-1867.0,277.0,1694.0,10720.461538461539
2024-11-18 14:40:27.740,-1867.0,277.0,1694.0,10720.846153846154
2024-11-18 14:40:27.760,-1867.0,277.0,1694.0,10721.23076923077
2024-11-18 14:40:27.780,-1867.0,277.0,1694.0,10721.615384615385
2024-11-18 14:40:27.800,-1867.0,277.0,1694.0,10722.0
2024-11-18 14:40:27.820,-1867.0,277.0,1694.0,10721.75
2024-11-18 14:40:27.840,-1867.0,277.0,1694.0,10721.5
2024-11-18 14:40:27.860,-1867.0,277.0,1694.0,10721.25
2024-11-18 14:40:27.880,-1867.0,277.0,1694.0,10721.0
2024-11-18 14:40:27.900,-1867.0,277.0,1694.0,10720.75
2024-11-18 14:40:27.920,-1867.0,277.0,1694.0,10720.5
2024-11-18 14:40:27.940,-1867.0,277.0,1694.0,10720.25
2024-11-18 14:40:27.960,-1867.0,277.0,1694.0,10720.0
2024-11-18 14:40:27.980,-1867.0,277.0,1694.0,10719.75
2024-11-18 14:40:28.000,-1867.0,277.0,1694.0,10719.5
2024-11-18 14:40:28.020,-1867.0,277.0,1694.0,10719.25
2024-11-18 14:40:28.040,-1867.0,277.0,1694.0,10719.0
2024-11-18 14:40:28.060,-1867.0,277.0,1694.0,10718.76923076923
2024-11-18 14:40:28.080,-1867.0,277.0,1694.0,10718.538461538461
2024-11-18 14:40:28.100,-1867.0,277.0,1694.0,10718.307692307691
2024-11-18 14:40:28.120,-1867.0,277.0,1694.0,10718.076923076924
2024-11-18 14:40:28.140,-1867.0,277.0,1694.0,10717.846153846154
2024-11-18 14:40:28.160,-1867.0,277.0,1694.0,10717.615384615385
2024-11-18 14:40:28.180,-1867.0,277.0,1694.0,10717.384615384615
2024-11-18 14:40:28.200,-1867.0,277.0,1694.0,10717.153846153846
2024-11-18 14:40:28.220,-1867.0,277.0,1694.0,10716.923076923076
2024-11-18 14:40:28.240,-1867.0,277.0,1694.0,10716.692307692309
2024-11-18 14:40:28.260,-1867.0,277.0,1694.0,10716.461538461539
2024-11-18 14:40:28.280,-1867.0,277.0,1694.0,10716.23076923077
2024-11-18 14:40:28.300,-1867.0,277.0,1694.0,10716.0
2024-11-18 14:40:28.320,-1867.0,277.0,1694.0,10715.916666666666
2024-11-18 14:40:28.340,-1867.0,277.0,1694.0,10715.833333333334
2024-11-18 14:40:28.360,-1867.0,277.0,1694.0,10715.75
2024-11-18 14:40:28.380,-1867.0,277.0,1694.0,10715.666666666666
2024-11-18 14:40:28.400,-1867.0,277.0,1694.0,10715.583333333334
2024-11-18 14:40:28.420,-1867.0,277.0,1694.0,10715.5
2024-11-18 14:40:28.440,-1867.0,277.0,1694.0,10715.416666666666
2024-11-18 14:40:28.460,-1867.0,277.0,1694.0,10715.333333333334
2024-11-18 14:40:28.480,-1867.0,277.0,1694.0,10715.25
2024-11-18 14:40:28.500,-1867.0,277.0,1694.0,10715.166666666666
2024-11-18 14:40:28.520,-1867.0,277.0,1694.0,10715.083333333334
2024-11-18 14:40:28.540,-1867.0,277.0,1694.0,10715.0
2024-11-18 14:40:28.560,-1867.0,277.0,1694.0,10714.692307692309
2024-11-18 14:40:28.580,-1867.0,277.0,1694.0,10714.384615384615
2024-11-18 14:40:28.600,-1867.0,277.0,1694.0,10714.076923076924
2024-11-18 14:40:28.620,-1867.0,277.0,1694.0,10713.76923076923
2024-11-18 14:40:28.640,-1867.0,277.0,1694.0,10713.461538461539
2024-11-18 14:40:28.660,-1867.0,277.0,1694.0,10713.153846153846
2024-11-18 14:40:28.680,-1867.0,277.0,1694.0,10712.846153846154
2024-11-18 14:40:28.700,-1867.0,277.0,1694.0,10712.538461538461
2024-11-18 14:40:28.720,-1867.0,277.0,1694.0,10712.23076923077
2024-11-18 14:40:28.740,-1867.0,277.0,1694.0,10711.923076923076
2024-11-18 14:40:28.760,-1867.0,277.0,1694.0,10711.615384615385
2024-11-18 14:40:28.780,-1867.0,277.0,1694.0,10711.307692307691
2024-11-18 14:40:28.800,-1867.0,277.0,1694.0,10711.0
2024-11-18 14:40:28.820,-1867.0,277.0,1694.0,10711.416666666666
2024-11-18 14:40:28.840,-1867.0,277.0,1694.0,10711.833333333334
2024-11-18 14:40:28.860,-1867.0,277.0,1694.0,10712.25
2024-11-18 14:40:28.880,-1867.0,277.0,1694.0,10712.666666666666
2024-11-18 14:40:28.900,-1867.0,277.0,1694.0,10713.083333333334
2024-11-18 14:40:28.920,-1867.0,277.0,1694.0,10713.5
2024-11-18 14:40:28.940,-1867.0,277.0,1694.0,10713.916666666666
2024-11-18 14:40:28.960,-1867.0,277.0,1694.0,10714.333333333334
2024-11-18 14:40:28.980,-1867.0,277.0,1694.0,10714.75
2024-11-18 14:40:29.000,-1867.0,277.0,1694.0,10715.166666666666
2024-11-18 14:40:29.020,-1867.0,277.0,1694.0,10715.583333333334
2024-11-18 14:40:29.040,-1867.0,277.0,1694.0,10716.0
2024-11-18 14:40:29.060,-1867.0,277.0,1694.0,10716.076923076924
2024-11-18 14:40:29.080,-1867.0,277.0,1694.0,10716.153846153846
2024-11-18 14:40:29.100,-1867.0,277.0,1694.0,10716.23076923077
2024-11-18 14:40:29.120,-1867.0,277.0,1694.0,10716.307692307691
2024-11-18 14:40:29.140,-1867.0,277.0,1694.0,10716.384615384615
2024-11-18 14:40:29.160,-1867.0,277.0,1694.0,10716.461538461539
2024-11-18 14:40:29.180,-1867.0,277.0,1694.0,10716.538461538461
2024-11-18 14:40:29.200,-1867.0,277.0,1694.0,10716.615384615385
2024-11-18 14:40:29.220,-1867.0,277.0,1694.0,10716.692307692309
2024-11-18 14:40:29.240,-1867.0,277.0,1694.0,10716.76923076923
2024-11-18 14:40:29.260,-1867.0,277.0,1694.0,10716.846153846154
2024-11-18 14:40:29.280,-1867.0,277.0,1694.0,10716.923076923076
2024-11-18 14:40:29.300,-1867.0,277.0,1694.0,10717.0
2024-11-18 14:40:29.320,-1867.0,277.0,1694.0,10717.5
2024-11-18 14:40:29.340,-1867.0,277.0,1694.0,10718.0
2024-11-18 14:40:29.360,-1867.0,277.0,1694.0,10718.5
2024-11-18 14:40:29.380,-1867.0,277.0,1694.0,10719.0
2024-11-18 14:40:29.400,-1867.0,277.0,1694.0,10719.5
2024-11-18 14:40:29.420,-1867.0,277.0,1694.0,10720.0
2024-11-18 14:40:29.440,-1867.0,277.0,1694.0,10720.5
2024-11-18 14:40:29.460,-1867.0,277.0,1694.0,10721.0
2024-11-18 14:40:29.480,-1867.0,277.0,1694.0,10721.5
2024-11-18 14:40:29.500,-1867.0,277.0,1694.0,10722.0
2024-11-18 14:40:29.520,-1867.0,277.0,1694.0,10722.5
2024-11-18 14:40:29.540,-1867.0,277.0,1694.0,10723.0
2024-11-18 14:40:29.560,-1867.0,277.0,1694.0,10722.71875
2024-11-18 14:40:29.580,-1867.0,277.0,1694.0,10722.4375
2024-11-18 14:40:29.600,-1867.0,277.0,1694.0,10722.15625
2024-11-18 14:40:29.620,-1867.0,277.0,1694.0,10721.875
2024-11-18 14:40:29.640,-1867.0,277.0,1694.0,10721.59375
2024-11-18 14:40:29.660,-1867.0,277.0,1694.0,10721.3125
2024-11-18 14:40:29.680,-1867.0,277.0,1694.0,10721.03125
2024-11-18 14:40:29.700,-1867.0,277.0,1694.0,10720.75
2024-11-18 14:40:29.720,-1867.0,277.0,1694.0,10720.46875
2024-11-18 14:40:29.740,-1867.0,277.0,1694.0,10720.1875
2024-11-18 14:40:29.760,-1867.0,277.0,1694.0,10719.90625
2024-11-18 14:40:29.780,-1867.0,277.0,1694.0,10719.625
2024-11-18 14:40:29.800,-1867.0,277.0,1694.0,10719.34375
2024-11-18 14:40:29.820,-1867.0,277.0,1694.0,10719.0625
2024-11-18 14:40:29.840,-1867.0,277.0,1694.0,10718.78125
2024-11-18 14:40:29.860,-1867.0,277.0,1694.0,10718.5
2024-11-18 14:40:29.880,-1867.0,277.0,1694.0,10718.21875
2024-11-18 14:40:29.900,-1867.0,277.0,1694.0,10717.9375
2024-11-18 14:40:29.920,-1867.0,277.0,1694.0,10717.65625
2024-11-18 14:40:29.940,-1867.0,277.0,1694.0,10717.375
2024-11-18 14:40:29.960,-1867.0,277.0,1694.0,10717.09375
2024-11-18 14:40:29.980,-1867.0,277.0,1694.0,10716.8125
2024-11-18 14:40:30.000,-1867.0,277.0,1694.0,10716.53125
2024-11-18 14:40:30.020,-1867.0,277.0,1694.0,10716.25
2024-11-18 14:40:30.040,-1867.0,277.0,1694.0,10715.96875
2024-11-18 14:40:30.060,-1867.0,277.0,1694.0,10715.6875
2024-11-18 14:40:30.080,-1867.0,277.0,1694.0,10715.40625
2024-11-18 14:40:30.100,-1867.0,277.0,1694.0,10715.125
2024-11-18 14:40:30.120,-1867.0,277.0,1694.0,10714.84375
2024-11-18 14:40:30.140,-1867.0,277.0,1694.0,10714.5625
2024-11-18 14:40:30.160,-1867.0,277.0,1694.0,10714.28125
2024-11-18 14:40:30.180,-1867.0,277.0,1694.0,10714.0
2024-11-18 14:40:30.200,-1867.0,277.0,1694.0,10713.833333333334
2024-11-18 14:40:30.220,-1867.0,277.0,1694.0,10713.666666666666
2024-11-18 14:40:30.240,-1867.0,277.0,1694.0,10713.5
2024-11-18 14:40:30.260,-1867.0,277.0,1694.0,10713.333333333334
2024-11-18 14:40:30.280,-1867.0,277.0,1694.0,10713.166666666666
2024-11-18 14:40:30.300,-1867.0,277.0,1694.0,10713.0
2024-11-18 14:40:30.320,-1867.0,277.0,1694.0,10713.5
2024-11-18 14:40:30.340,-1867.0,277.0,1694.0,10714.0
2024-11-18 14:40:30.360,-1867.0,277.0,1694.0,10714.5
2024-11-18 14:40:30.380,-1867.0,277.0,1694.0,10715.0
2024-11-18 14:40:30.400,-1867.0,277.0,1694.0,10715.5
2024-11-18 14:40:30.420,-1867.0,277.0,1694.0,10716.0
2024-11-18 14:40:30.440,-1867.0,277.0,1694.0,10716.5
2024-11-18 14:40:30.460,-1867.0,277.0,1694.0,10717.0
2024-11-18 14:40:30.480,-1867.0,277.0,1694.0,10717.5
2024-11-18 14:40:30.500,-1867.0,277.0,1694.0,10718.0
2024-11-18 14:40:30.520,-1867.0,277.0,1694.0,10718.5
2024-11-18 14:40:30.540,-1867.0,277.0,1694.0,10719.0
2024-11-18 14:40:30.560,-1867.0,277.0,1694.0,10718.846153846154
2024-11-18 14:40:30.580,-1867.0,277.0,1694.0,10718.692307692309
2024-11-18 14:40:30.600,-1867.0,277.0,1694.0,10718.538461538461
2024-11-18 14:40:30.620,-1867.0,277.0,1694.0,10718.384615384615
2024-11-18 14:40:30.640,-1867.0,277.0,1694.0,10718.23076923077
2024-11-18 14:40:30.660,-1867.0,277.0,1694.0,10718.076923076924
2024-11-18 14:40:30.680,-1867.0,277.0,1694.0,10717.923076923076
2024-11-18 14:40:30.700,-1867.0,277.0,1694.0,10717.76923076923
2024-11-18 14:40:30.720,-1867.0,277.0,1694.0,10717.615384615385
2024-11-18 14:40:30.740,-1867.0,277.0,1694.0,10717.461538461539
2024-11-18 14:40:30.760,-1867.0,277.0,1694.0,10717.307692307691
2024-11-18 14:40:30.780,-1867.0,277.0,1694.0,10717.153846153846
2024-11-18 14:40:30.800,-1867.0,277.0,1694.0,10717.0
2024-11-18 14:40:30.820,-1867.0,277.0,1694.0,10717.0
2024-11-18 14:40:30.840,-1867.0,277.0,1694.0,10717.0
2024-11-18 14:40:30.860,-1867.0,277.0,1694.0,10717.0
2024-11-18 14:40:30.880,-1867.0,277.0,1694.0,10717.0
2024-11-18 14:40:30.900,-1867.0,277.0,1694.0,10717.0
2024-11-18 14:40:30.920,-1867.0,277.0,1694.0,10717.0
2024-11-18 14:40:30.940,-1867.0,277.0,1694.0,10717.0
2024-11-18 14:40:30.960,-1867.0,277.0,1694.0,10717.0
2024-11-18 14:40:30.980,-1867.0,277.0,1694.0,10717.0
2024-11-18 14:40:31.000,-1867.0,277.0,1694.0,10717.0
2024-11-18 14:40:31.020,-1867.0,277.0,1694.0,10717.0
2024-11-18 14:40:31.040,-1867.0,277.0,1694.0,10717.0
2024-11-18 14:40:31.060,-1867.0,277.0,1694.0,10717.538461538461
2024-11-18 14:40:31.080,-1867.0,277.0,1694.0,10718.076923076924
2024-11-18 14:40:31.100,-1867.0,277.0,1694.0,10718.615384615385
2024-11-18 14:40:31.120,-1867.0,277.0,1694.0,10719.153846153846
2024-11-18 14:40:31.140,-1867.0,277.0,1694.0,10719.692307692309
2024-11-18 14:40:31.160,-1867.0,277.0,1694.0,10720.23076923077
2024-11-18 14:40:31.180,-1867.0,277.0,1694.0,10720.76923076923
2024-11-18 14:40:31.200,-1867.0,277.0,1694.0,10721.307692307691
2024-11-18 14:40:31.220,-1867.0,277.0,1694.0,10721.846153846154
2024-11-18 14:40:31.240,-1867.0,277.0,1694.0,10722.384615384615
2024-11-18 14:40:31.260,-1867.0,277.0,1694.0,10722.923076923076
2024-11-18 14:40:31.280,-1867.0,277.0,1694.0,10723.461538461539
2024-11-18 14:40:31.300,-1867.0,277.0,1694.0,10724.0
2024-11-18 14:40:31.320,-1867.0,277.0,1694.0,10723.75
2024-11-18 14:40:31.340,-1867.0,277.0,1694.0,10723.5
2024-11-18 14:40:31.360,-1867.0,277.0,1694.0,10723.25
2024-11-18 14:40:31.380,-1867.0,277.0,1694.0,10723.0
2024-11-18 14:40:31.400,-1867.0,277.0,1694.0,10722.75
2024-11-18 14:40:31.420,-1867.0,277.0,1694.0,10722.5
2024-11-18 14:40:31.440,-1867.0,277.0,1694.0,10722.25
2024-11-18 14:40:31.460,-1867.0,277.0,1694.0,10722.0
2024-11-18 14:40:31.480,-1867.0,277.0,1694.0,10721.75
2024-11-18 14:40:31.500,-1867.0,277.0,1694.0,10721.5
2024-11-18 14:40:31.520,-1867.0,277.0,1694.0,10721.25
2024-11-18 14:40:31.540,-1867.0,277.0,1694.0,10721.0
2024-11-18 14:40:31.560,-1867.0,277.0,1694.0,10720.76923076923
2024-11-18 14:40:31.580,-1867.0,277.0,1694.0,10720.538461538461
2024-11-18 14:40:31.600,-1867.0,277.0,1694.0,10720.307692307691
2024-11-18 14:40:31.620,-1867.0,277.0,1694.0,10720.076923076924
2024-11-18 14:40:31.640,-1867.0,277.0,1694.0,10719.846153846154
2024-11-18 14:40:31.660,-1867.0,277.0,1694.0,10719.615384615385
2024-11-18 14:40:31.680,-1867.0,277.0,1694.0,10719.384615384615
2024-11-18 14:40:31.700,-1867.0,277.0,1694.0,10719.153846153846
2024-11-18 14:40:31.720,-1867.0,277.0,1694.0,10718.923076923076
2024-11-18 14:40:31.740,-1867.0,277.0,1694.0,10718.692307692309
2024-11-18 14:40:31.760,-1867.0,277.0,1694.0,10718.461538461539
2024-11-18 14:40:31.780,-1867.0,277.0,1694.0,10718.23076923077
2024-11-18 14:40:31.800,-1867.0,277.0,1694.0,10718.0
2024-11-18 14:40:31.820,-1867.0,277.0,1694.0,10718.0
2024-11-18 14:40:31.840,-1867.0,277.0,1694.0,10718.0
2024-11-18 14:40:31.860,-1867.0,277.0,1694.0,10718.0
2024-11-18 14:40:31.880,-1867.0,277.0,1694.0,10718.0
2024-11-18 14:40:31.900,-1867.0,277.0,1694.0,10718.0
2024-11-18 14:40:31.920,-1867.0,277.0,1694.0,10718.0
2024-11-18 14:40:31.940,-1867.0,277.0,1694.0,10718.0
2024-11-18 14:40:31.960,-1867.0,277.0,1694.0,10718.0
2024-11-18 14:40:31.980,-1867.0,277.0,1694.0,10718.0
2024-11-18 14:40:32.000,-1867.0,277.0,1694.0,10718.0
2024-11-18 14:40:32.020,-1867.0,277.0,1694.0,10718.0
2024-11-18 14:40:32.040,-1867.0,277.0,1694.0,10718.0
2024-11-18 14:40:32.060,-1867.0,277.0,1694.0,10718.307692307691
2024-11-18 14:40:32.080,-1867.0,277.0,1694.0,10718.615384615385
2024-11-18 14:40:32.100,-1867.0,277.0,1694.0,10718.923076923076
2024-11-18 14:40:32.120,-1867.0,277.0,1694.0,10719.23076923077
2024-11-18 14:40:32.140,-1867.0,277.0,1694.0,10719.538461538461
2024-11-18 14:40:32.160,-1867.0,277.0,1694.0,10719.846153846154
2024-11-18 14:40:32.180,-1867.0,277.0,1694.0,10720.153846153846
2024-11-18 14:40:32.200,-1867.0,277.0,1694.0,10720.461538461539
2024-11-18 14:40:32.220,-1867.0,277.0,1694.0,10720.76923076923
2024-11-18 14:40:32.240,-1867.0,277.0,1694.0,10721.076923076924
2024-11-18 14:40:32.260,-1867.0,277.0,1694.0,10721.384615384615
2024-11-18 14:40:32.280,-1867.0,277.0,1694.0,10721.692307692309
2024-11-18 14:40:32.300,-1867.0,277.0,1694.0,10722.0
2024-11-18 14:40:32.320,-1867.0,277.0,1694.0,10722.083333333334
2024-11-18 14:40:32.340,-1867.0,277.0,1694.0,10722.166666666666
2024-11-18 14:40:32.360,-1867.0,277.0,1694.0,10722.25
2024-11-18 14:40:32.380,-1867.0,277.0,1694.0,10722.333333333334
2024-11-18 14:40:32.400,-1867.0,277.0,1694.0,10722.416666666666
2024-11-18 14:40:32.420,-1867.0,277.0,1694.0,10722.5
2024-11-18 14:40:32.440,-1867.0,277.0,1694.0,10722.583333333334
2024-11-18 14:40:32.460,-1867.0,277.0,1694.0,10722.666666666666
2024-11-18 14:40:32.480,-1867.0,277.0,1694.0,10722.75
2024-11-18 14:40:32.500,-1867.0,277.0,1694.0,10722.833333333334
2024-11-18 14:40:32.520,-1867.0,277.0,1694.0,10722.916666666666
2024-11-18 14:40:32.540,-1867.0,277.0,1694.0,10723.0
2024-11-18 14:40:32.560,-1867.0,277.0,1694.0,10722.846153846154
2024-11-18 14:40:32.580,-1867.0,277.0,1694.0,10722.692307692309
2024-11-18 14:40:32.600,-1867.0,277.0,1694.0,10722.538461538461
2024-11-18 14:40:32.620,-1867.0,277.0,1694.0,10722.384615384615
2024-11-18 14:40:32.640,-1867.0,277.0,1694.0,10722.23076923077
2024-11-18 14:40:32.660,-1867.0,277.0,1694.0,10722.076923076924
2024-11-18 14:40:32.680,-1867.0,277.0,1694.0,10721.923076923076
2024-11-18 14:40:32.700,-1867.0,277.0,1694.0,10721.76923076923
2024-11-18 14:40:32.720,-1867.0,277.0,1694.0,10721.615384615385
2024-11-18 14:40:32.740,-1867.0,277.0,1694.0,10721.461538461539
2024-11-18 14:40:32.760,-1867.0,277.0,1694.0,10721.307692307691
2024-11-18 14:40:32.780,-1867.0,277.0,1694.0,10721.153846153846
2024-11-18 14:40:32.800,-1867.0,277.0,1694.0,10721.0
2024-11-18 14:40:32.820,-1867.0,277.0,1694.0,10720.666666666666
2024-11-18 14:40:32.840,-1867.0,277.0,1694.0,10720.333333333334
2024-11-18 14:40:32.860,-1867.0,277.0,1694.0,10720.0
2024-11-18 14:40:32.880,-1867.0,277.0,1694.0,10719.666666666666
2024-11-18 14:40:32.900,-1867.0,277.0,1694.0,10719.333333333334
2024-11-18 14:40:32.920,-1867.0,277.0,1694.0,10719.0
2024-11-18 14:40:32.940,-1867.0,277.0,1694.0,10718.666666666666
2024-11-18 14:40:32.960,-1867.0,277.0,1694.0,10718.333333333334
2024-11-18 14:40:32.980,-1867.0,277.0,1694.0,10718.0
2024-11-18 14:40:33.000,-1867.0,277.0,1694.0,10717.666666666666
2024-11-18 14:40:33.020,-1867.0,277.0,1694.0,10717.333333333334
2024-11-18 14:40:33.040,-1867.0,277.0,1694.0,10717.0
2024-11-18 14:40:33.060,-1867.0,277.0,1694.0,10717.461538461539
2024-11-18 14:40:33.080,-1867.0,277.0,1694.0,10717.923076923076
2024-11-18 14:40:33.100,-1867.0,277.0,1694.0,10718.384615384615
2024-11-18 14:40:33.120,-1867.0,277.0,1694.0,10718.846153846154
2024-11-18 14:40:33.140,-1867.0,277.0,1694.0,10719.307692307691
2024-11-18 14:40:33.160,-1867.0,277.0,1694.0,10719.76923076923
2024-11-18 14:40:33.180,-1867.0,277.0,1694.0,10720.23076923077
2024-11-18 14:40:33.200,-1867.0,277.0,1694.0,10720.692307692309
2024-11-18 14:40:33.220,-1867.0,277.0,1694.0,10721.153846153846
2024-11-18 14:40:33.240,-1867.0,277.0,1694.0,10721.615384615385
2024-11-18 14:40:33.260,-1867.0,277.0,1694.0,10722.076923076924
2024-11-18 14:40:33.280,-1867.0,277.0,1694.0,10722.538461538461
2024-11-18 14:40:33.300,-1867.0,277.0,1694.0,10723.0
2024-11-18 14:40:33.320,-1867.0,277.0,1694.0,10722.75
2024-11-18 14:40:33.340,-1867.0,277.0,1694.0,10722.5
2024-11-18 14:40:33.360,-1867.0,277.0,1694.0,10722.25
2024-11-18 14:40:33.380,-1867.0,277.0,1694.0,10722.0
2024-11-18 14:40:33.400,-1867.0,277.0,1694.0,10721.75
2024-11-18 14:40:33.420,-1867.0,277.0,1694.0,10721.5
2024-11-18 14:40:33.440,-1867.0,277.0,1694.0,10721.25
2024-11-18 14:40:33.460,-1867.0,277.0,1694.0,10721.0
2024-11-18 14:40:33.480,-1867.0,277.0,1694.0,10720.75
2024-11-18 14:40:33.500,-1867.0,277.0,1694.0,10720.5
2024-11-18 14:40:33.520,-1867.0,277.0,1694.0,10720.25
2024-11-18 14:40:33.540,-1867.0,277.0,1694.0,10720.0
2024-11-18 14:40:33.560,-1867.0,277.0,1694.0,10719.923076923076
2024-11-18 14:40:33.580,-1867.0,277.0,1694.0,10719.846153846154
2024-11-18 14:40:33.600,-1867.0,277.0,1694.0,10719.76923076923
2024-11-18 14:40:33.620,-1867.0,277.0,1694.0,10719.692307692309
2024-11-18 14:40:33.640,-1867.0,277.0,1694.0,10719.615384615385
2024-11-18 14:40:33.660,-1867.0,277.0,1694.0,10719.538461538461
2024-11-18 14:40:33.680,-1867.0,277.0,1694.0,10719.461538461539
2024-11-18 14:40:33.700,-1867.0,277.0,1694.0,10719.384615384615
2024-11-18 14:40:33.720,-1867.0,277.0,1694.0,10719.307692307691
2024-11-18 14:40:33.740,-1867.0,277.0,1694.0,10719.23076923077
2024-11-18 14:40:33.760,-1867.0,277.0,1694.0,10719.153846153846
2024-11-18 14:40:33.780,-1867.0,277.0,1694.0,10719.076923076924
2024-11-18 14:40:33.800,-1867.0,277.0,1694.0,10719.0
2024-11-18 14:40:33.820,-1867.0,277.0,1694.0,10719.0
2024-11-18 14:40:33.840,-1867.0,277.0,1694.0,10719.0
2024-11-18 14:40:33.860,-1867.0,277.0,1694.0,10719.0
2024-11-18 14:40:33.880,-1867.0,277.0,1694.0,10719.0
2024-11-18 14:40:33.900,-1867.0,277.0,1694.0,10719.0
2024-11-18 14:40:33.920,-1867.0,277.0,1694.0,10719.0
2024-11-18 14:40:33.940,-1867.0,277.0,1694.0,10719.0
2024-11-18 14:40:33.960,-1867.0,277.0,1694.0,10719.0
2024-11-18 14:40:33.980,-1867.0,277.0,1694.0,10719.0
2024-11-18 14:40:34.000,-1867.0,277.0,1694.0,10719.0
2024-11-18 14:40:34.020,-1867.0,277.0,1694.0,10719.0
2024-11-18 14:40:34.040,-1867.0,277.0,1694.0,10719.0
2024-11-18 14:40:34.060,-1867.0,277.0,1694.0,10718.285714285714
2024-11-18 14:40:34.080,-1867.0,277.0,1694.0,10717.57142857143
2024-11-18 14:40:34.100,-1867.0,277.0,1694.0,10716.857142857143
2024-11-18 14:40:34.120,-1867.0,277.0,1694.0,10716.142857142857
2024-11-18 14:40:34.140,-1867.0,277.0,1694.0,10715.42857142857
2024-11-18 14:40:34.160,-1867.0,277.0,1694.0,10714.714285714286
2024-11-18 14:40:34.180,-1867.0,277.0,1694.0,10714.0
2024-11-18 14:40:34.200,-1867.0,277.0,1694.0,10714.5
2024-11-18 14:40:34.220,-1867.0,277.0,1694.0,10715.0
2024-11-18 14:40:34.240,-1867.0,277.0,1694.0,10715.5
2024-11-18 14:40:34.260,-1867.0,277.0,1694.0,10716.0
2024-11-18 14:40:34.280,-1867.0,277.0,1694.0,10716.5
2024-11-18 14:40:34.300,-1867.0,277.0,1694.0,10717.0
2024-11-18 14:40:34.320,-1867.0,277.0,1694.0,10717.5
2024-11-18 14:40:34.340,-1867.0,277.0,1694.0,10718.0
2024-11-18 14:40:34.360,-1867.0,277.0,1694.0,10718.5
2024-11-18 14:40:34.380,-1867.0,277.0,1694.0,10719.0
2024-11-18 14:40:34.400,-1867.0,277.0,1694.0,10719.5
2024-11-18 14:40:34.420,-1867.0,277.0,1694.0,10720.0
2024-11-18 14:40:34.440,-1867.0,277.0,1694.0,10719.923076923076
2024-11-18 14:40:34.460,-1867.0,277.0,1694.0,10719.846153846154
2024-11-18 14:40:34.480,-1867.0,277.0,1694.0,10719.76923076923
2024-11-18 14:40:34.500,-1867.0,277.0,1694.0,10719.692307692309
2024-11-18 14:40:34.520,-1867.0,277.0,1694.0,10719.615384615385
2024-11-18 14:40:34.540,-1867.0,277.0,1694.0,10719.538461538461
2024-11-18 14:40:34.560,-1867.0,277.0,1694.0,10719.461538461539
2024-11-18 14:40:34.580,-1867.0,277.0,1694.0,10719.384615384615
2024-11-18 14:40:34.600,-1867.0,277.0,1694.0,10719.307692307691
2024-11-18 14:40:34.620,-1867.0,277.0,1694.0,10719.23076923077
2024-11-18 14:40:34.640,-1867.0,277.0,1694.0,10719.153846153846
2024-11-18 14:40:34.660,-1867.0,277.0,1694.0,10719.076923076924
2024-11-18 14:40:34.680,-1867.0,277.0,1694.0,10719.0
2024-11-18 14:40:34.700,-1867.0,277.0,1694.0,10719.25
2024-11-18 14:40:34.720,-1867.0,277.0,1694.0,10719.5
2024-11-18 14:40:34.740,-1867.0,277.0,1694.0,10719.75
2024-11-18 14:40:34.760,-1867.0,277.0,1694.0,10720.0
2024-11-18 14:40:34.780,-1867.0,277.0,1694.0,10720.25
2024-11-18 14:40:34.800,-1867.0,277.0,1694.0,10720.5
2024-11-18 14:40:34.820,-1867.0,277.0,1694.0,10720.75
2024-11-18 14:40:34.840,-1867.0,277.0,1694.0,10721.0
2024-11-18 14:40:34.860,-1867.0,277.0,1694.0,10721.25
2024-11-18 14:40:34.880,-1867.0,277.0,1694.0,10721.5
2024-11-18 14:40:34.900,-1867.0,277.0,1694.0,10721.75
2024-11-18 14:40:34.920,-1867.0,277.0,1694.0,10722.0
2024-11-18 14:40:34.940,-1867.0,277.0,1694.0,10721.461538461539
2024-11-18 14:40:34.960,-1867.0,277.0,1694.0,10720.923076923076
2024-11-18 14:40:34.980,-1867.0,277.0,1694.0,10720.384615384615
2024-11-18 14:40:35.000,-1867.0,277.0,1694.0,10719.846153846154
2024-11-18 14:40:35.020,-1867.0,277.0,1694.0,10719.307692307691
2024-11-18 14:40:35.040,-1867.0,277.0,1694.0,10718.76923076923
2024-11-18 14:40:35.060,-1867.0,277.0,1694.0,10718.23076923077
2024-11-18 14:40:35.080,-1867.0,277.0,1694.0,10717.692307692309
2024-11-18 14:40:35.100,-1867.0,277.0,1694.0,10717.153846153846
2024-11-18 14:40:35.120,-1867.0,277.0,1694.0,10716.615384615385
2024-11-18 14:40:35.140,-1867.0,277.0,1694.0,10716.076923076924
2024-11-18 14:40:35.160,-1867.0,277.0,1694.0,10715.538461538461
2024-11-18 14:40:35.180,-1867.0,277.0,1694.0,10715.0
2024-11-18 14:40:35.200,-1867.0,277.0,1694.0,10715.25
2024-11-18 14:40:35.220,-1867.0,277.0,1694.0,10715.5
2024-11-18 14:40:35.240,-1867.0,277.0,1694.0,10715.75
2024-11-18 14:40:35.260,-1867.0,277.0,1694.0,10716.0
2024-11-18 14:40:35.280,-1867.0,277.0,1694.0,10716.25
2024-11-18 14:40:35.300,-1867.0,277.0,1694.0,10716.5
2024-11-18 14:40:35.320,-1867.0,277.0,1694.0,10716.75
2024-11-18 14:40:35.340,-1867.0,277.0,1694.0,10717.0
2024-11-18 14:40:35.360,-1867.0,277.0,1694.0,10717.25
2024-11-18 14:40:35.380,-1867.0,277.0,1694.0,10717.5
2024-11-18 14:40:35.400,-1867.0,277.0,1694.0,10717.75
2024-11-18 14:40:35.420,-1867.0,277.0,1694.0,10718.0
2024-11-18 14:40:35.440,-1867.0,277.0,1694.0,10718.076923076924
2024-11-18 14:40:35.460,-1867.0,277.0,1694.0,10718.153846153846
2024-11-18 14:40:35.480,-1867.0,277.0,1694.0,10718.23076923077
2024-11-18 14:40:35.500,-1867.0,277.0,1694.0,10718.307692307691
2024-11-18 14:40:35.520,-1867.0,277.0,1694.0,10718.384615384615
2024-11-18 14:40:35.540,-1867.0,277.0,1694.0,10718.461538461539
2024-11-18 14:40:35.560,-1867.0,277.0,1694.0,10718.538461538461
2024-11-18 14:40:35.580,-1867.0,277.0,1694.0,10718.615384615385
2024-11-18 14:40:35.600,-1867.0,277.0,1694.0,10718.692307692309
2024-11-18 14:40:35.620,-1867.0,277.0,1694.0,10718.76923076923
2024-11-18 14:40:35.640,-1867.0,277.0,1694.0,10718.846153846154
2024-11-18 14:40:35.660,-1867.0,277.0,1694.0,10718.923076923076
2024-11-18 14:40:35.680,-1867.0,277.0,1694.0,10719.0
2024-11-18 14:40:35.700,-1867.0,277.0,1694.0,10718.833333333334
2024-11-18 14:40:35.720,-1867.0,277.0,1694.0,10718.666666666666
2024-11-18 14:40:35.740,-1867.0,277.0,1694.0,10718.5
2024-11-18 14:40:35.760,-1867.0,277.0,1694.0,10718.333333333334
2024-11-18 14:40:35.780,-1867.0,277.0,1694.0,10718.166666666666
2024-11-18 14:40:35.800,-1867.0,277.0,1694.0,10718.0
2024-11-18 14:40:35.820,-1867.0,277.0,1694.0,10717.833333333334
2024-11-18 14:40:35.840,-1867.0,277.0,1694.0,10717.666666666666
2024-11-18 14:40:35.860,-1867.0,277.0,1694.0,10717.5
2024-11-18 14:40:35.880,-1867.0,277.0,1694.0,10717.333333333334
2024-11-18 14:40:35.900,-1867.0,277.0,1694.0,10717.166666666666
2024-11-18 14:40:35.920,-1867.0,277.0,1694.0,10717.0
2024-11-18 14:40:35.940,-1867.0,277.0,1694.0,10717.307692307691
2024-11-18 14:40:35.960,-1867.0,277.0,1694.0,10717.615384615385
2024-11-18 14:40:35.980,-1867.0,277.0,1694.0,10717.923076923076
2024-11-18 14:40:36.000,-1867.0,277.0,1694.0,10718.23076923077
2024-11-18 14:40:36.020,-1867.0,277.0,1694.0,10718.538461538461
2024-11-18 14:40:36.040,-1867.0,277.0,1694.0,10718.846153846154
2024-11-18 14:40:36.060,-1867.0,277.0,1694.0,10719.153846153846
2024-11-18 14:40:36.080,-1867.0,277.0,1694.0,10719.461538461539
2024-11-18 14:40:36.100,-1867.0,277.0,1694.0,10719.76923076923
2024-11-18 14:40:36.120,-1867.0,277.0,1694.0,10720.076923076924
2024-11-18 14:40:36.140,-1867.0,277.0,1694.0,10720.384615384615
2024-11-18 14:40:36.160,-1867.0,277.0,1694.0,10720.692307692309
2024-11-18 14:40:36.180,-1867.0,277.0,1694.0,10721.0
2024-11-18 14:40:36.200,-1867.0,277.0,1694.0,10720.666666666666
2024-11-18 14:40:36.220,-1867.0,277.0,1694.0,10720.333333333334
2024-11-18 14:40:36.240,-1867.0,277.0,1694.0,10720.0
2024-11-18 14:40:36.260,-1867.0,277.0,1694.0,10719.666666666666
2024-11-18 14:40:36.280,-1867.0,277.0,1694.0,10719.333333333334
2024-11-18 14:40:36.300,-1867.0,277.0,1694.0,10719.0
2024-11-18 14:40:36.320,-1867.0,277.0,1694.0,10718.666666666666
2024-11-18 14:40:36.340,-1867.0,277.0,1694.0,10718.333333333334
2024-11-18 14:40:36.360,-1867.0,277.0,1694.0,10718.0
2024-11-18 14:40:36.380,-1867.0,277.0,1694.0,10717.666666666666
2024-11-18 14:40:36.400,-1867.0,277.0,1694.0,10717.333333333334
2024-11-18 14:40:36.420,-1867.0,277.0,1694.0,10717.0
2024-11-18 14:40:36.440,-1867.0,277.0,1694.0,10717.307692307691
2024-11-18 14:40:36.460,-1867.0,277.0,1694.0,10717.615384615385
2024-11-18 14:40:36.480,-1867.0,277.0,1694.0,10717.923076923076
2024-11-18 14:40:36.500,-1867.0,277.0,1694.0,10718.23076923077
2024-11-18 14:40:36.520,-1867.0,277.0,1694.0,10718.538461538461
2024-11-18 14:40:36.540,-1867.0,277.0,1694.0,10718.846153846154
2024-11-18 14:40:36.560,-1867.0,277.0,1694.0,10719.153846153846
2024-11-18 14:40:36.580,-1867.0,277.0,1694.0,10719.461538461539
2024-11-18 14:40:36.600,-1867.0,277.0,1694.0,10719.76923076923
2024-11-18 14:40:36.620,-1867.0,277.0,1694.0,10720.076923076924
2024-11-18 14:40:36.640,-1867.0,277.0,1694.0,10720.384615384615
2024-11-18 14:40:36.660,-1867.0,277.0,1694.0,10720.692307692309
2024-11-18 14:40:36.680,-1867.0,277.0,1694.0,10721.0
2024-11-18 14:40:36.700,-1867.0,277.0,1694.0,10720.833333333334
2024-11-18 14:40:36.720,-1867.0,277.0,1694.0,10720.666666666666
2024-11-18 14:40:36.740,-1867.0,277.0,1694.0,10720.5
2024-11-18 14:40:36.760,-1867.0,277.0,1694.0,10720.333333333334
2024-11-18 14:40:36.780,-1867.0,277.0,1694.0,10720.166666666666
2024-11-18 14:40:36.800,-1867.0,277.0,1694.0,10720.0
2024-11-18 14:40:36.820,-1867.0,277.0,1694.0,10719.833333333334
2024-11-18 14:40:36.840,-1867.0,277.0,1694.0,10719.666666666666
2024-11-18 14:40:36.860,-1867.0,277.0,1694.0,10719.5
2024-11-18 14:40:36.880,-1867.0,277.0,1694.0,10719.333333333334
2024-11-18 14:40:36.900,-1867.0,277.0,1694.0,10719.166666666666
2024-11-18 14:40:36.920,-1867.0,277.0,1694.0,10719.0
2024-11-18 14:40:36.940,-1867.0,277.0,1694.0,10718.846153846154
2024-11-18 14:40:36.960,-1867.0,277.0,1694.0,10718.692307692309
2024-11-18 14:40:36.980,-1867.0,277.0,1694.0,10718.538461538461
2024-11-18 14:40:37.000,-1867.0,277.0,1694.0,10718.384615384615
2024-11-18 14:40:37.020,-1867.0,277.0,1694.0,10718.23076923077
2024-11-18 14:40:37.040,-1867.0,277.0,1694.0,10718.076923076924
2024-11-18 14:40:37.060,-1867.0,277.0,1694.0,10717.923076923076
2024-11-18 14:40:37.080,-1867.0,277.0,1694.0,10717.76923076923
2024-11-18 14:40:37.100,-1867.0,277.0,1694.0,10717.615384615385
2024-11-18 14:40:37.120,-1867.0,277.0,1694.0,10717.461538461539
2024-11-18 14:40:37.140,-1867.0,277.0,1694.0,10717.307692307691
2024-11-18 14:40:37.160,-1867.0,277.0,1694.0,10717.153846153846
2024-11-18 14:40:37.180,-1867.0,277.0,1694.0,10717.0
2024-11-18 14:40:37.200,-1867.0,277.0,1694.0,10717.166666666666
2024-11-18 14:40:37.220,-1867.0,277.0,1694.0,10717.333333333334
2024-11-18 14:40:37.240,-1867.0,277.0,1694.0,10717.5
2024-11-18 14:40:37.260,-1867.0,277.0,1694.0,10717.666666666666
2024-11-18 14:40:37.280,-1867.0,277.0,1694.0,10717.833333333334
2024-11-18 14:40:37.300,-1867.0,277.0,1694.0,10718.0
2024-11-18 14:40:37.320,-1867.0,277.0,1694.0,10718.166666666666
2024-11-18 14:40:37.340,-1867.0,277.0,1694.0,10718.333333333334
2024-11-18 14:40:37.360,-1867.0,277.0,1694.0,10718.5
2024-11-18 14:40:37.380,-1867.0,277.0,1694.0,10718.666666666666
2024-11-18 14:40:37.400,-1867.0,277.0,1694.0,10718.833333333334
2024-11-18 14:40:37.420,-1867.0,277.0,1694.0,10719.0
2024-11-18 14:40:37.440,-1867.0,277.0,1694.0,10718.923076923076
2024-11-18 14:40:37.460,-1867.0,277.0,1694.0,10718.846153846154
2024-11-18 14:40:37.480,-1867.0,277.0,1694.0,10718.76923076923
2024-11-18 14:40:37.500,-1867.0,277.0,1694.0,10718.692307692309
2024-11-18 14:40:37.520,-1867.0,277.0,1694.0,10718.615384615385
2024-11-18 14:40:37.540,-1867.0,277.0,1694.0,10718.538461538461
2024-11-18 14:40:37.560,-1867.0,277.0,1694.0,10718.461538461539
2024-11-18 14:40:37.580,-1867.0,277.0,1694.0,10718.384615384615
2024-11-18 14:40:37.600,-1867.0,277.0,1694.0,10718.307692307691
2024-11-18 14:40:37.620,-1867.0,277.0,1694.0,10718.23076923077
2024-11-18 14:40:37.640,-1867.0,277.0,1694.0,10718.153846153846
2024-11-18 14:40:37.660,-1867.0,277.0,1694.0,10718.076923076924
2024-11-18 14:40:37.680,-1867.0,277.0,1694.0,10718.0
2024-11-18 14:40:37.700,-1867.0,277.0,1694.0,10718.0
2024-11-18 14:40:37.720,-1867.0,277.0,1694.0,10718.0
2024-11-18 14:40:37.740,-1867.0,277.0,1694.0,10718.0
2024-11-18 14:40:37.760,-1867.0,277.0,1694.0,10718.0
2024-11-18 14:40:37.780,-1867.0,277.0,1694.0,10718.0
2024-11-18 14:40:37.800,-1867.0,277.0,1694.0,10718.0
2024-11-18 14:40:37.820,-1867.0,277.0,1694.0,10718.0
2024-11-18 14:40:37.840,-1867.0,277.0,1694.0,10718.0
2024-11-18 14:40:37.860,-1867.0,277.0,1694.0,10718.0
2024-11-18 14:40:37.880,-1867.0,277.0,1694.0,10718.0
2024-11-18 14:40:37.900,-1867.0,277.0,1694.0,10718.0
2024-11-18 14:40:37.920,-1867.0,277.0,1694.0,10718.0
2024-11-18 14:40:37.940,-1867.0,277.0,1694.0,10718.076923076924
2024-11-18 14:40:37.960,-1867.0,277.0,1694.0,10718.153846153846
2024-11-18 14:40:37.980,-1867.0,277.0,1694.0,10718.23076923077
2024-11-18 14:40:38.000,-1867.0,277.0,1694.0,10718.307692307691
2024-11-18 14:40:38.020,-1867.0,277.0,1694.0,10718.384615384615
2024-11-18 14:40:38.040,-1867.0,277.0,1694.0,10718.461538461539
2024-11-18 14:40:38.060,-1867.0,277.0,1694.0,10718.538461538461
2024-11-18 14:40:38.080,-1867.0,277.0,1694.0,10718.615384615385
2024-11-18 14:40:38.100,-1867.0,277.0,1694.0,10718.692307692309
2024-11-18 14:40:38.120,-1867.0,277.0,1694.0,10718.76923076923
2024-11-18 14:40:38.140,-1867.0,277.0,1694.0,10718.846153846154
2024-11-18 14:40:38.160,-1867.0,277.0,1694.0,10718.923076923076
2024-11-18 14:40:38.180,-1867.0,277.0,1694.0,10719.0
2024-11-18 14:40:38.200,-1867.0,277.0,1694.0,10718.666666666666
2024-11-18 14:40:38.220,-1867.0,277.0,1694.0,10718.333333333334
2024-11-18 14:40:38.240,-1867.0,277.0,1694.0,10718.0
2024-11-18 14:40:38.260,-1867.0,277.0,1694.0,10717.666666666666
2024-11-18 14:40:38.280,-1867.0,277.0,1694.0,10717.333333333334
2024-11-18 14:40:38.300,-1867.0,277.0,1694.0,10717.0
2024-11-18 14:40:38.320,-1867.0,277.0,1694.0,10716.666666666666
2024-11-18 14:40:38.340,-1867.0,277.0,1694.0,10716.333333333334
2024-11-18 14:40:38.360,-1867.0,277.0,1694.0,10716.0
2024-11-18 14:40:38.380,-1867.0,277.0,1694.0,10715.666666666666
2024-11-18 14:40:38.400,-1867.0,277.0,1694.0,10715.333333333334
2024-11-18 14:40:38.420,-1867.0,277.0,1694.0,10715.0
2024-11-18 14:40:38.440,-1867.0,277.0,1694.0,10714.631578947368
2024-11-18 14:40:38.460,-1867.0,277.0,1694.0,10714.263157894737
2024-11-18 14:40:38.480,-1867.0,277.0,1694.0,10713.894736842105
2024-11-18 14:40:38.500,-1867.0,277.0,1694.0,10713.526315789473
2024-11-18 14:40:38.520,-1867.0,277.0,1694.0,10713.157894736842
2024-11-18 14:40:38.540,-1867.0,277.0,1694.0,10712.78947368421
2024-11-18 14:40:38.560,-1867.0,277.0,1694.0,10712.421052631578
2024-11-18 14:40:38.580,-1867.0,277.0,1694.0,10712.052631578947
2024-11-18 14:40:38.600,-1867.0,277.0,1694.0,10711.684210526315
2024-11-18 14:40:38.620,-1867.0,277.0,1694.0,10711.315789473685
2024-11-18 14:40:38.640,-1867.0,277.0,1694.0,10710.947368421053
2024-11-18 14:40:38.660,-1867.0,277.0,1694.0,10710.578947368422
2024-11-18 14:40:38.680,-1867.0,277.0,1694.0,10710.21052631579
2024-11-18 14:40:38.700,-1867.0,277.0,1694.0,10709.842105263158
2024-11-18 14:40:38.720,-1867.0,277.0,1694.0,10709.473684210527
2024-11-18 14:40:38.740,-1867.0,277.0,1694.0,10709.105263157895
2024-11-18 14:40:38.760,-1867.0,277.0,1694.0,10708.736842105263
2024-11-18 14:40:38.780,-1867.0,277.0,1694.0,10708.368421052632
2024-11-18 14:40:38.800,-1867.0,277.0,1694.0,10708.0
2024-11-18 14:40:38.820,-1867.0,277.0,1694.0,10709.333333333334
2024-11-18 14:40:38.840,-1867.0,277.0,1694.0,10710.666666666666
2024-11-18 14:40:38.860,-1867.0,277.0,1694.0,10712.0
2024-11-18 14:40:38.880,-1867.0,277.0,1694.0,10713.333333333334
2024-11-18 14:40:38.900,-1867.0,277.0,1694.0,10714.666666666666
2024-11-18 14:40:38.920,-1867.0,277.0,1694.0,10716.0
2024-11-18 14:40:38.940,-1867.0,277.0,1694.0,10715.692307692309
2024-11-18 14:40:38.960,-1867.0,277.0,1694.0,10715.384615384615
2024-11-18 14:40:38.980,-1867.0,277.0,1694.0,10715.076923076924
2024-11-18 14:40:39.000,-1867.0,277.0,1694.0,10714.76923076923
2024-11-18 14:40:39.020,-1867.0,277.0,1694.0,10714.461538461539
2024-11-18 14:40:39.040,-1867.0,277.0,1694.0,10714.153846153846
2024-11-18 14:40:39.060,-1867.0,277.0,1694.0,10713.846153846154
2024-11-18 14:40:39.080,-1867.0,277.0,1694.0,10713.538461538461
2024-11-18 14:40:39.100,-1867.0,277.0,1694.0,10713.23076923077
2024-11-18 14:40:39.120,-1867.0,277.0,1694.0,10712.923076923076
2024-11-18 14:40:39.140,-1867.0,277.0,1694.0,10712.615384615385
2024-11-18 14:40:39.160,-1867.0,277.0,1694.0,10712.307692307691
2024-11-18 14:40:39.180,-1867.0,277.0,1694.0,10712.0
2024-11-18 14:40:39.200,-1867.0,277.0,1694.0,10712.0
2024-11-18 14:40:39.220,-1867.0,277.0,1694.0,10712.0
2024-11-18 14:40:39.240,-1867.0,277.0,1694.0,10712.0
2024-11-18 14:40:39.260,-1867.0,277.0,1694.0,10712.0
2024-11-18 14:40:39.280,-1867.0,277.0,1694.0,10712.0
2024-11-18 14:40:39.300,-1867.0,277.0,1694.0,10712.0
2024-11-18 14:40:39.320,-1867.0,277.0,1694.0,10712.0
2024-11-18 14:40:39.340,-1867.0,277.0,1694.0,10712.0
2024-11-18 14:40:39.360,-1867.0,277.0,1694.0,10712.0
2024-11-18 14:40:39.380,-1867.0,277.0,1694.0,10712.0
2024-11-18 14:40:39.400,-1867.0,277.0,1694.0,10712.0
2024-11-18 14:40:39.420,-1867.0,277.0,1694.0,10712.0
2024-11-18 14:40:39.440,-1867.0,277.0,1694.0,10712.692307692309
2024-11-18 14:40:39.460,-1867.0,277.0,1694.0,10713.384615384615
2024-11-18 14:40:39.480,-1867.0,277.0,1694.0,10714.076923076924
2024-11-18 14:40:39.500,-1867.0,277.0,1694.0,10714.76923076923
2024-11-18 14:40:39.520,-1867.0,277.0,1694.0,10715.461538461539
2024-11-18 14:40:39.540,-1867.0,277.0,1694.0,10716.153846153846
2024-11-18 14:40:39.560,-1867.0,277.0,1694.0,10716.846153846154
2024-11-18 14:40:39.580,-1867.0,277.0,1694.0,10717.538461538461
2024-11-18 14:40:39.600,-1867.0,277.0,1694.0,10718.23076923077
2024-11-18 14:40:39.620,-1867.0,277.0,1694.0,10718.923076923076
2024-11-18 14:40:39.640,-1867.0,277.0,1694.0,10719.615384615385
2024-11-18 14:40:39.660,-1867.0,277.0,1694.0,10720.307692307691
2024-11-18 14:40:39.680,-1867.0,277.0,1694.0,10721.0
2024-11-18 14:40:39.700,-1779.06,241.2,1745.5,10720.64
2024-11-18 14:40:39.720,-1691.12,205.4,1797.0,10720.28
2024-11-18 14:40:39.740,-1603.18,169.60000000000002,1848.5,10719.92
2024-11-18 14:40:39.760,-1515.24,133.8,1900.0,10719.56
2024-11-18 14:40:39.780,-1427.3,98.00000000000001,1951.5,10719.2
2024-11-18 14:40:39.800,-1339.3600000000001,62.20000000000002,2003.0,10718.84
2024-11-18 14:40:39.820,-1251.42,26.40000000000002,2054.5,10718.48
2024-11-18 14:40:39.840,-1163.48,-9.399999999999977,2106.0,10718.12
2024-11-18 14:40:39.860,-1075.54,-45.199999999999974,2157.5,10717.76
2024-11-18 14:40:39.880,-987.6,-80.99999999999997,2209.0,10717.4
2024-11-18 14:40:39.900,-899.6600000000001,-116.79999999999997,2260.5,10717.04
2024-11-18 14:40:39.920,-811.72,-152.59999999999997,2312.0,10716.68
2024-11-18 14:40:39.940,-723.78,-188.39999999999998,2363.5,10716.32
2024-11-18 14:40:39.960,-635.84,-224.19999999999996,2415.0,10715.96
2024-11-18 14:40:39.980,-547.9000000000001,-259.99999999999994,2466.5,10715.6
2024-11-18 14:40:40.000,-459.96000000000004,-295.79999999999995,2518.0,10715.24
2024-11-18 14:40:40.020,-372.02000000000004,-331.59999999999997,2569.5,10714.88
2024-11-18 14:40:40.040,-284.08000000000004,-367.4,2621.0,10714.52
2024-11-18 14:40:40.060,-196.14000000000004,-403.19999999999993,2672.5,10714.16
2024-11-18 14:40:40.080,-108.20000000000005,-438.99999999999994,2724.0,10713.8
2024-11-18 14:40:40.100,-20.260000000000048,-474.79999999999995,2775.5,10713.44
2024-11-18 14:40:40.120,67.67999999999995,-510.5999999999999,2827.0,10713.08
2024-11-18 14:40:40.140,155.61999999999995,-546.4,2878.5,10712.72
2024-11-18 14:40:40.160,243.55999999999995,-582.1999999999999,2930.0,10712.36
2024-11-18 14:40:40.180,331.5,-618.0,2981.5,10712.0
2024-11-18 14:40:40.200,329.9583333333333,-537.25,2895.4583333333335,10712.25
2024-11-18 14:40:40.220,328.4166666666667,-456.5,2809.4166666666665,10712.5
2024-11-18 14:40:40.240,326.875,-375.75,2723.375,10712.75
2024-11-18 14:40:40.260,325.3333333333333,-295.0,2637.3333333333335,10713.0
2024-11-18 14:40:40.280,323.7916666666667,-214.25,2551.2916666666665,10713.25
2024-11-18 14:40:40.300,322.25,-133.5,2465.25,10713.5
2024-11-18 14:40:40.320,320.7083333333333,-52.75,2379.2083333333335,10713.75
2024-11-18 14:40:40.340,319.1666666666667,28.0,2293.1666666666665,10714.0
2024-11-18 14:40:40.360,317.625,108.75,2207.125,10714.25
2024-11-18 14:40:40.380,316.0833333333333,189.5,2121.0833333333335,10714.5
2024-11-18 14:40:40.400,314.5416666666667,270.25,2035.0416666666665,10714.75
2024-11-18 14:40:40.420,313.0,351.0,1949.0,10715.0
2024-11-18 14:40:40.440,313.2307692307692,352.15384615384613,1947.7692307692307,10714.846153846154
2024-11-18 14:40:40.460,313.46153846153845,353.3076923076923,1946.5384615384614,10714.692307692309
2024-11-18 14:40:40.480,313.6923076923077,354.46153846153845,1945.3076923076924,10714.538461538461
2024-11-18 14:40:40.500,313.9230769230769,355.61538461538464,1944.076923076923,10714.384615384615
2024-11-18 14:40:40.520,314.15384615384613,356.7692307692308,1942.8461538461538,10714.23076923077
2024-11-18 14:40:40.540,314.38461538461536,357.9230769230769,1941.6153846153845,10714.076923076924
2024-11-18 14:40:40.560,314.61538461538464,359.0769230769231,1940.3846153846155,10713.923076923076
2024-11-18 14:40:40.580,314.84615384615387,360.2307692307692,1939.1538461538462,10713.76923076923
2024-11-18 14:40:40.600,315.0769230769231,361.38461538461536,1937.923076923077,10713.615384615385
2024-11-18 14:40:40.620,315.3076923076923,362.53846153846155,1936.6923076923076,10713.461538461539
2024-11-18 14:40:40.640,315.53846153846155,363.6923076923077,1935.4615384615386,10713.307692307691
2024-11-18 14:40:40.660,315.7692307692308,364.84615384615387,1934.2307692307693,10713.153846153846
2024-11-18 14:40:40.680,316.0,366.0,1933.0,10713.0
2024-11-18 14:40:40.700,316.5,197.58333333333334,1933.1666666666667,10712.75
2024-11-18 14:40:40.720,317.0,29.166666666666686,1933.3333333333333,10712.5
2024-11-18 14:40:40.740,317.5,-139.24999999999997,1933.5,10712.25
2024-11-18 14:40:40.760,318.0,-307.66666666666663,1933.6666666666667,10712.0
2024-11-18 14:40:40.780,318.5,-476.08333333333326,1933.8333333333333,10711.75
2024-11-18 14:40:40.800,319.0,-644.5,1934.0,10711.5
2024-11-18 14:40:40.820,319.5,-812.9166666666666,1934.1666666666667,10711.25
2024-11-18 14:40:40.840,320.0,-981.3333333333333,1934.3333333333333,10711.0
2024-11-18 14:40:40.860,320.5,-1149.75,1934.5,10710.75
2024-11-18 14:40:40.880,321.0,-1318.1666666666665,1934.6666666666667,10710.5
2024-11-18 14:40:40.900,321.5,-1486.5833333333333,1934.8333333333333,10710.25
2024-11-18 14:40:40.920,322.0,-1655.0,1935.0,10710.0
2024-11-18 14:40:40.940,320.6923076923077,-1498.2307692307693,2089.846153846154,10709.923076923076
2024-11-18 14:40:40.960,319.38461538461536,-1341.4615384615386,2244.6923076923076,10709.846153846154
2024-11-18 14:40:40.980,318.0769230769231,-1184.6923076923076,2399.5384615384614,10709.76923076923
2024-11-18 14:40:41.000,316.7692307692308,-1027.923076923077,2554.3846153846152,10709.692307692309
2024-11-18 14:40:41.020,315.46153846153845,-871.1538461538462,2709.230769230769,10709.615384615385
2024-11-18 14:40:41.040,314.15384615384613,-714.3846153846154,2864.076923076923,10709.538461538461
2024-11-18 14:40:41.060,312.84615384615387,-557.6153846153845,3018.9230769230767,10709.461538461539
2024-11-18 14:40:41.080,311.53846153846155,-400.8461538461538,3173.7692307692305,10709.384615384615
2024-11-18 14:40:41.100,310.2307692307692,-244.07692307692304,3328.6153846153848,10709.307692307691
2024-11-18 14:40:41.120,308.9230769230769,-87.30769230769226,3483.4615384615386,10709.23076923077
2024-11-18 14:40:41.140,307.61538461538464,69.46153846153851,3638.3076923076924,10709.153846153846
2024-11-18 14:40:41.160,306.3076923076923,226.23076923076928,3793.153846153846,10709.076923076924
2024-11-18 14:40:41.180,305.0,383.0,3948.0,10709.0
2024-11-18 14:40:41.200,302.25,381.3333333333333,3941.3333333333335,10709.16
2024-11-18 14:40:41.220,299.5,379.6666666666667,3934.6666666666665,10709.32
2024-11-18 14:40:41.240,296.75,378.0,3928.0,10709.48
2024-11-18 14:40:41.260,294.0,376.3333333333333,3921.3333333333335,10709.64
2024-11-18 14:40:41.280,291.25,374.6666666666667,3914.6666666666665,10709.8
2024-11-18 14:40:41.300,288.5,373.0,3908.0,10709.96
2024-11-18 14:40:41.320,285.75,371.3333333333333,3901.3333333333335,10710.12
2024-11-18 14:40:41.340,283.0,369.6666666666667,3894.6666666666665,10710.28
2024-11-18 14:40:41.360,280.25,368.0,3888.0,10710.44
2024-11-18 14:40:41.380,277.5,366.3333333333333,3881.3333333333335,10710.6
2024-11-18 14:40:41.400,274.75,364.6666666666667,3874.6666666666665,10710.76
2024-11-18 14:40:41.420,272.0,363.0,3868.0,10710.92
2024-11-18 14:40:41.440,108.23076923076923,357.84615384615387,3705.230769230769,10711.08
2024-11-18 14:40:41.460,-55.53846153846155,352.6923076923077,3542.4615384615386,10711.24
2024-11-18 14:40:41.480,-219.30769230769232,347.53846153846155,3379.6923076923076,10711.4
2024-11-18 14:40:41.500,-383.0769230769231,342.38461538461536,3216.923076923077,10711.56
2024-11-18 14:40:41.520,-546.8461538461538,337.2307692307692,3054.153846153846,10711.72
2024-11-18 14:40:41.540,-710.6153846153846,332.0769230769231,2891.3846153846152,10711.88
2024-11-18 14:40:41.560,-874.3846153846155,326.9230769230769,2728.6153846153848,10712.04
2024-11-18 14:40:41.580,-1038.1538461538462,321.7692307692308,2565.846153846154,10712.2
2024-11-18 14:40:41.600,-1201.923076923077,316.6153846153846,2403.076923076923,10712.36
2024-11-18 14:40:41.620,-1365.6923076923076,311.46153846153845,2240.3076923076924,10712.52
2024-11-18 14:40:41.640,-1529.4615384615386,306.3076923076923,2077.5384615384614,10712.68
2024-11-18 14:40:41.660,-1693.2307692307693,301.15384615384613,1914.7692307692307,10712.84
2024-11-18 14:40:41.680,-1857.0,296.0,1752.0,10713.0
2024-11-18 14:40:41.700,-1859.4166666666667,296.6666666666667,1750.9166666666667,10713.083333333334
2024-11-18 14:40:41.720,-1861.8333333333333,297.3333333333333,1749.8333333333333,10713.166666666666
2024-11-18 14:40:41.740,-1864.25,298.0,1748.75,10713.25
2024-11-18 14:40:41.760,-1866.6666666666667,298.6666666666667,1747.6666666666667,10713.333333333334
2024-11-18 14:40:41.780,-1869.0833333333333,299.3333333333333,1746.5833333333333,10713.416666666666
2024-11-18 14:40:41.800,-1871.5,300.0,1745.5,10713.5
2024-11-18 14:40:41.820,-1873.9166666666667,300.6666666666667,1744.4166666666667,10713.583333333334
2024-11-18 14:40:41.840,-1876.3333333333333,301.3333333333333,1743.3333333333333,10713.666666666666
2024-11-18 14:40:41.860,-1878.75,302.0,1742.25,10713.75
2024-11-18 14:40:41.880,-1881.1666666666667,302.6666666666667,1741.1666666666667,10713.833333333334
2024-11-18 14:40:41.900,-1883.5833333333333,303.3333333333333,1740.0833333333333,10713.916666666666
2024-11-18 14:40:41.920,-1886.0,304.0,1739.0,10714.0
2024-11-18 14:40:41.940,-1885.8461538461538,306.9230769230769,1737.923076923077,10714.0
2024-11-18 14:40:41.960,-1885.6923076923076,309.84615384615387,1736.8461538461538,10714.0
2024-11-18 14:40:41.980,-1885.5384615384614,312.7692307692308,1735.7692307692307,10714.0
2024-11-18 14:40:42.000,-1885.3846153846155,315.6923076923077,1734.6923076923076,10714.0
2024-11-18 14:40:42.020,-1885.2307692307693,318.61538461538464,1733.6153846153845,10714.0
2024-11-18 14:40:42.040,-1885.076923076923,321.53846153846155,1732.5384615384614,10714.0
2024-11-18 14:40:42.060,-1884.923076923077,324.46153846153845,1731.4615384615386,10714.0
2024-11-18 14:40:42.080,-1884.7692307692307,327.38461538461536,1730.3846153846155,10714.0
2024-11-18 14:40:42.100,-1884.6153846153845,330.3076923076923,1729.3076923076924,10714.0
2024-11-18 14:40:42.120,-1884.4615384615386,333.2307692307692,1728.2307692307693,10714.0
2024-11-18 14:40:42.140,-1884.3076923076924,336.15384615384613,1727.1538461538462,10714.0
2024-11-18 14:40:42.160,-1884.1538461538462,339.0769230769231,1726.076923076923,10714.0
2024-11-18 14:40:42.180,-1884.0,342.0,1725.0,10714.0
2024-11-18 14:40:42.200,-1884.25,338.9166666666667,1723.4166666666667,10714.0
2024-11-18 14:40:42.220,-1884.5,335.8333333333333,1721.8333333333333,10714.0
2024-11-18 14:40:42.240,-1884.75,332.75,1720.25,10714.0
2024-11-18 14:40:42.260,-1885.0,329.6666666666667,1718.6666666666667,10714.0
2024-11-18 14:40:42.280,-1885.25,326.5833333333333,1717.0833333333333,10714.0
2024-11-18 14:40:42.300,-1885.5,323.5,1715.5,10714.0
2024-11-18 14:40:42.320,-1885.75,320.4166666666667,1713.9166666666667,10714.0
2024-11-18 14:40:42.340,-1886.0,317.3333333333333,1712.3333333333333,10714.0
2024-11-18 14:40:42.360,-1886.25,314.25,1710.75,10714.0
2024-11-18 14:40:42.380,-1886.5,311.1666666666667,1709.1666666666667,10714.0
2024-11-18 14:40:42.400,-1886.75,308.0833333333333,1707.5833333333333,10714.0
2024-11-18 14:40:42.420,-1887.0,305.0,1706.0,10714.0
2024-11-18 14:40:42.440,-1885.1666666666667,300.3333333333333,1703.8333333333333,10714.333333333334
2024-11-18 14:40:42.460,-1883.3333333333333,295.6666666666667,1701.6666666666667,10714.666666666666
2024-11-18 14:40:42.480,-1881.5,291.0,1699.5,10715.0
2024-11-18 14:40:42.500,-1879.6666666666667,286.3333333333333,1697.3333333333333,10715.333333333334
2024-11-18 14:40:42.520,-1877.8333333333333,281.6666666666667,1695.1666666666667,10715.666666666666
2024-11-18 14:40:42.540,-1876.0,277.0,1693.0,10716.0
2024-11-18 14:40:42.560,-1877.5384615384614,277.7692307692308,1692.6923076923076,10716.307692307691
2024-11-18 14:40:42.580,-1879.076923076923,278.53846153846155,1692.3846153846155,10716.615384615385
2024-11-18 14:40:42.600,-1880.6153846153845,279.3076923076923,1692.076923076923,10716.923076923076
2024-11-18 14:40:42.620,-1882.1538461538462,280.0769230769231,1691.7692307692307,10717.23076923077
2024-11-18 14:40:42.640,-1883.6923076923076,280.84615384615387,1691.4615384615386,10717.538461538461
2024-11-18 14:40:42.660,-1885.2307692307693,281.61538461538464,1691.1538461538462,10717.846153846154
2024-11-18 14:40:42.680,-1886.7692307692307,282.38461538461536,1690.8461538461538,10718.153846153846
2024-11-18 14:40:42.700,-1888.3076923076924,283.15384615384613,1690.5384615384614,10718.461538461539
2024-11-18 14:40:42.720,-1889.8461538461538,283.9230769230769,1690.2307692307693,10718.76923076923
2024-11-18 14:40:42.740,-1891.3846153846155,284.6923076923077,1689.923076923077,10719.076923076924
2024-11-18 14:40:42.760,-1892.923076923077,285.46153846153845,1689.6153846153845,10719.384615384615
2024-11-18 14:40:42.780,-1894.4615384615386,286.2307692307692,1689.3076923076924,10719.692307692309
2024-11-18 14:40:42.800,-1896.0,287.0,1689.0,10720.0
2024-11-18 14:40:42.820,-1896.0833333333333,287.5,1689.0,10719.666666666666
2024-11-18 14:40:42.840,-1896.1666666666667,288.0,1689.0,10719.333333333334
2024-11-18 14:40:42.860,-1896.25,288.5,1689.0,10719.0
2024-11-18 14:40:42.880,-1896.3333333333333,289.0,1689.0,10718.666666666666
2024-11-18 14:40:42.900,-1896.4166666666667,289.5,1689.0,10718.333333333334
2024-11-18 14:40:42.920,-1896.5,290.0,1689.0,10718.0
2024-11-18 14:40:42.940,-1896.5833333333333,290.5,1689.0,10717.666666666666
2024-11-18 14:40:42.960,-1896.6666666666667,291.0,1689.0,10717.333333333334
2024-11-18 14:40:42.980,-1896.75,291.5,1689.0,10717.0
2024-11-18 14:40:43.000,-1896.8333333333333,292.0,1689.0,10716.666666666666
2024-11-18 14:40:43.020,-1896.9166666666667,292.5,1689.0,10716.333333333334
2024-11-18 14:40:43.040,-1897.0,293.0,1689.0,10716.0
2024-11-18 14:40:43.060,-1897.0,293.0769230769231,1688.6153846153845,10715.923076923076
2024-11-18 14:40:43.080,-1897.0,293.15384615384613,1688.2307692307693,10715.846153846154
2024-11-18 14:40:43.100,-1897.0,293.2307692307692,1687.8461538461538,10715.76923076923
2024-11-18 14:40:43.120,-1897.0,293.3076923076923,1687.4615384615386,10715.692307692309
2024-11-18 14:40:43.140,-1897.0,293.38461538461536,1687.076923076923,10715.615384615385
2024-11-18 14:40:43.160,-1897.0,293.46153846153845,1686.6923076923076,10715.538461538461
2024-11-18 14:40:43.180,-1897.0,293.53846153846155,1686.3076923076924,10715.461538461539
2024-11-18 14:40:43.200,-1897.0,293.61538461538464,1685.923076923077,10715.384615384615
2024-11-18 14:40:43.220,-1897.0,293.6923076923077,1685.5384615384614,10715.307692307691
2024-11-18 14:40:43.240,-1897.0,293.7692307692308,1685.1538461538462,10715.23076923077
2024-11-18 14:40:43.260,-1897.0,293.84615384615387,1684.7692307692307,10715.153846153846
2024-11-18 14:40:43.280,-1897.0,293.9230769230769,1684.3846153846155,10715.076923076924
2024-11-18 14:40:43.300,-1897.0,294.0,1684.0,10715.0
2024-11-18 14:40:43.320,-1897.1666666666667,293.9166666666667,1683.75,10714.916666666666
2024-11-18 14:40:43.340,-1897.3333333333333,293.8333333333333,1683.5,10714.833333333334
2024-11-18 14:40:43.360,-1897.5,293.75,1683.25,10714.75
2024-11-18 14:40:43.380,-1897.6666666666667,293.6666666666667,1683.0,10714.666666666666
2024-11-18 14:40:43.400,-1897.8333333333333,293.5833333333333,1682.75,10714.583333333334
2024-11-18 14:40:43.420,-1898.0,293.5,1682.5,10714.5
2024-11-18 14:40:43.440,-1898.1666666666667,293.4166666666667,1682.25,10714.416666666666
2024-11-18 14:40:43.460,-1898.3333333333333,293.3333333333333,1682.0,10714.333333333334
2024-11-18 14:40:43.480,-1898.5,293.25,1681.75,10714.25
2024-11-18 14:40:43.500,-1898.6666666666667,293.1666666666667,1681.5,10714.166666666666
2024-11-18 14:40:43.520,-1898.8333333333333,293.0833333333333,1681.25,10714.083333333334
2024-11-18 14:40:43.540,-1899.0,293.0,1681.0,10714.0
2024-11-18 14:40:43.560,-1898.923076923077,293.0769230769231,1681.5384615384614,10714.23076923077
2024-11-18 14:40:43.580,-1898.8461538461538,293.15384615384613,1682.076923076923,10714.461538461539
2024-11-18 14:40:43.600,-1898.7692307692307,293.2307692307692,1682.6153846153845,10714.692307692309
2024-11-18 14:40:43.620,-1898.6923076923076,293.3076923076923,1683.1538461538462,10714.923076923076
2024-11-18 14:40:43.640,-1898.6153846153845,293.38461538461536,1683.6923076923076,10715.153846153846
2024-11-18 14:40:43.660,-1898.5384615384614,293.46153846153845,1684.2307692307693,10715.384615384615
2024-11-18 14:40:43.680,-1898.4615384615386,293.53846153846155,1684.7692307692307,10715.615384615385
2024-11-18 14:40:43.700,-1898.3846153846155,293.61538461538464,1685.3076923076924,10715.846153846154
2024-11-18 14:40:43.720,-1898.3076923076924,293.6923076923077,1685.8461538461538,10716.076923076924
2024-11-18 14:40:43.740,-1898.2307692307693,293.7692307692308,1686.3846153846155,10716.307692307691
2024-11-18 14:40:43.760,-1898.1538461538462,293.84615384615387,1686.923076923077,10716.538461538461
2024-11-18 14:40:43.780,-1898.076923076923,293.9230769230769,1687.4615384615386,10716.76923076923
2024-11-18 14:40:43.800,-1898.0,294.0,1688.0,10717.0
2024-11-18 14:40:43.820,-1898.25,292.9166666666667,1689.0,10717.083333333334
2024-11-18 14:40:43.840,-1898.5,291.8333333333333,1690.0,10717.166666666666
2024-11-18 14:40:43.860,-1898.75,290.75,1691.0,10717.25
2024-11-18 14:40:43.880,-1899.0,289.6666666666667,1692.0,10717.333333333334
2024-11-18 14:40:43.900,-1899.25,288.5833333333333,1693.0,10717.416666666666
2024-11-18 14:40:43.920,-1899.5,287.5,1694.0,10717.5
2024-11-18 14:40:43.940,-1899.75,286.4166666666667,1695.0,10717.583333333334
2024-11-18 14:40:43.960,-1900.0,285.3333333333333,1696.0,10717.666666666666
2024-11-18 14:40:43.980,-1900.25,284.25,1697.0,10717.75
2024-11-18 14:40:44.000,-1900.5,283.1666666666667,1698.0,10717.833333333334
2024-11-18 14:40:44.020,-1900.75,282.0833333333333,1699.0,10717.916666666666
2024-11-18 14:40:44.040,-1901.0,281.0,1700.0,10718.0
2024-11-18 14:40:44.060,-1899.6153846153845,282.15384615384613,1699.6153846153845,10717.615384615385
2024-11-18 14:40:44.080,-1898.2307692307693,283.3076923076923,1699.2307692307693,10717.23076923077
2024-11-18 14:40:44.100,-1896.8461538461538,284.46153846153845,1698.8461538461538,10716.846153846154
2024-11-18 14:40:44.120,-1895.4615384615386,285.61538461538464,1698.4615384615386,10716.461538461539
2024-11-18 14:40:44.140,-1894.076923076923,286.7692307692308,1698.076923076923,10716.076923076924
2024-11-18 14:40:44.160,-1892.6923076923076,287.9230769230769,1697.6923076923076,10715.692307692309
2024-11-18 14:40:44.180,-1891.3076923076924,289.0769230769231,1697.3076923076924,10715.307692307691
2024-11-18 14:40:44.200,-1889.923076923077,290.2307692307692,1696.923076923077,10714.923076923076
2024-11-18 14:40:44.220,-1888.5384615384614,291.38461538461536,1696.5384615384614,10714.538461538461
